acc x,acc y,acc z,gyro x,gyro y,gyro z,temp,humidity,timestamp0.040,-0.054,0.992,1.160,0.061,0.427,30,18,240610.039,-0.054,0.993,1.343,0.122,0.549,30,18,240760.039,-0.055,0.994,1.343,0.122,0.671,30,18,240910.041,-0.054,0.991,1.160,0.305,0.549,30,18,241060.040,-0.054,0.993,1.404,0.183,0.671,30,18,241210.040,-0.054,0.992,1.221,0.244,0.610,30,18,241360.041,-0.053,0.992,1.282,0.244,0.549,30,18,241510.042,-0.053,0.993,1.343,0.244,0.549,30,18,241660.041,-0.054,0.992,1.404,0.061,0.610,30,18,241810.041,-0.054,0.994,1.160,0.244,0.488,30,18,241960.041,-0.055,0.994,1.038,0.366,0.366,30,18,242110.041,-0.053,0.992,1.282,0.305,0.610,30,18,242260.040,-0.054,0.993,1.221,0.305,0.549,30,18,242410.039,-0.055,0.993,1.282,0.122,0.488,30,18,242560.039,-0.054,0.993,1.282,0.061,0.732,30,18,242860.040,-0.054,0.993,1.221,0.183,0.732,30,18,243010.039,-0.053,0.993,1.160,0.061,0.488,30,18,243160.041,-0.055,0.991,1.343,0.244,0.732,30,18,243460.041,-0.054,0.993,1.343,0.305,0.671,30,18,243610.040,-0.054,0.993,1.343,0.244,0.427,30,18,243760.040,-0.054,0.992,1.343,0.244,0.610,30,18,243910.040,-0.054,0.994,1.404,0.305,0.671,30,18,244060.039,-0.055,0.993,0.610,0.061,0.122,30,18,244210.040,-0.055,0.995,0.366,0.000,-0.488,30,18,244360.041,-0.054,0.995,0.122,0.061,-0.671,30,18,244510.041,-0.054,0.993,0.244,0.122,-0.488,30,18,244660.042,-0.053,0.992,1.221,0.244,0.427,30,18,245260.041,-0.053,0.993,1.343,0.000,0.732,30,18,245410.041,-0.054,0.994,1.404,0.244,0.610,30,18,245560.041,-0.054,0.994,1.343,0.305,0.610,30,18,245710.040,-0.055,0.995,1.282,0.122,0.427,30,18,245860.040,-0.055,0.995,1.343,0.244,0.610,30,18,246010.040,-0.054,0.995,1.282,0.183,0.549,30,18,246160.039,-0.054,0.992,1.038,0.305,0.488,30,18,246310.041,-0.056,0.993,1.221,0.305,0.549,30,18,246460.040,-0.053,0.994,1.282,0.183,0.610,30,18,246610.040,-0.052,0.992,1.160,0.183,0.488,30,18,246760.040,-0.052,0.993,1.221,0.122,0.549,30,18,246910.039,-0.052,0.991,1.465,0.244,0.488,30,18,247060.038,-0.053,0.993,1.160,0.183,0.366,30,18,247210.039,-0.054,0.994,1.282,0.305,0.610,30,18,247360.039,-0.055,0.993,1.221,0.244,0.488,30,18,247510.041,-0.055,0.993,1.343,0.183,0.610,30,18,247660.041,-0.057,0.992,1.160,0.244,0.488,30,18,247810.041,-0.055,0.992,1.282,0.122,0.671,30,18,247960.042,-0.053,0.993,1.221,0.366,0.610,30,18,248110.042,-0.052,0.992,1.343,0.183,0.366,30,18,248260.040,-0.053,0.993,1.221,0.183,0.366,30,18,248410.040,-0.054,0.993,1.343,0.305,0.671,30,18,248560.038,-0.054,0.993,1.282,0.244,0.610,30,18,248860.038,-0.056,0.997,1.282,0.061,0.610,30,18,249010.039,-0.055,0.998,1.404,0.183,0.793,30,18,249160.041,-0.055,0.984,1.038,0.244,0.305,30,18,249310.041,-0.054,1.000,1.160,0.183,0.610,30,18,249460.042,-0.052,0.995,1.648,0.366,0.549,30,18,249610.043,-0.057,0.990,1.038,0.122,0.427,30,18,249760.044,-0.052,0.996,1.343,0.305,0.488,30,18,249910.042,-0.054,0.992,1.404,0.244,0.610,30,18,250060.040,-0.053,0.991,1.160,0.122,0.732,30,18,250210.038,-0.053,0.990,1.343,0.244,0.549,30,18,250360.037,-0.054,0.994,1.343,0.244,0.549,30,18,250510.037,-0.053,0.992,1.282,0.061,0.732,30,18,250660.038,-0.054,0.991,1.404,0.244,0.671,30,18,250810.038,-0.054,0.992,1.160,0.183,0.427,30,18,250960.040,-0.054,0.993,1.282,0.244,0.427,30,18,251110.041,-0.053,0.989,1.465,0.305,0.488,30,18,251260.043,-0.046,0.994,0.916,0.061,0.732,30,18,251410.041,-0.068,1.009,0.549,0.061,0.305,30,18,251560.044,-0.064,1.017,1.526,-0.244,0.488,30,18,251860.042,-0.058,0.974,0.183,0.916,0.488,30,18,252010.037,-0.070,1.002,1.770,0.610,0.366,30,18,252160.039,-0.047,0.985,0.305,0.122,0.854,30,18,252310.038,-0.056,0.993,2.197,-0.061,0.427,30,18,252460.037,-0.045,0.990,1.404,0.000,0.427,30,18,252610.033,-0.050,0.996,1.221,-0.061,0.488,30,18,252760.038,-0.052,0.990,1.099,0.305,0.610,30,18,252910.041,-0.057,0.995,1.465,-0.061,0.427,30,18,253060.042,-0.055,0.991,1.465,0.244,0.549,30,18,253360.041,-0.046,0.989,1.465,0.244,0.732,30,18,253510.043,-0.054,0.992,1.526,0.427,0.488,30,18,253660.043,-0.059,0.995,1.343,0.061,0.549,30,18,253810.042,-0.058,0.988,1.282,0.427,0.549,30,18,253960.040,-0.061,0.993,0.977,0.122,0.366,30,18,254110.039,-0.055,0.992,1.282,0.305,0.549,30,18,254260.038,-0.057,0.994,1.221,0.183,0.671,30,18,254410.036,-0.052,0.994,1.160,0.244,0.610,30,18,254710.040,-0.048,0.991,1.160,0.183,0.671,30,18,254860.041,-0.049,0.991,1.282,0.244,0.671,30,18,255010.043,-0.051,0.991,1.526,0.244,0.427,30,18,255160.044,-0.054,0.992,1.465,0.305,0.427,30,18,255310.042,-0.061,0.993,1.648,0.244,0.427,30,18,255460.040,-0.055,0.993,1.038,0.122,0.549,30,18,255610.039,-0.057,0.992,1.465,0.122,0.610,30,18,255760.038,-0.055,0.990,1.526,0.183,0.732,30,18,255910.036,-0.055,0.992,1.099,0.183,0.427,30,18,256060.039,-0.054,0.992,1.221,0.183,0.305,30,18,256210.039,-0.052,0.994,1.282,0.244,0.610,30,18,256360.042,-0.054,0.992,1.282,0.000,0.793,30,18,256960.040,-0.050,0.993,1.160,0.183,0.366,30,18,257110.036,-0.054,0.992,1.343,0.244,0.488,30,18,257260.038,-0.056,0.994,1.465,0.244,0.549,30,18,257410.041,-0.059,0.990,1.648,0.122,0.488,30,18,257560.039,-0.058,0.992,1.343,0.244,0.244,30,18,257710.039,-0.057,0.991,1.160,0.183,0.427,30,18,257860.041,-0.053,0.995,1.343,0.305,0.549,30,18,258010.041,-0.050,0.993,0.854,0.244,0.427,30,18,258160.043,-0.052,0.991,1.221,0.427,0.671,30,18,258310.041,-0.053,0.993,1.038,0.366,0.305,30,18,258760.040,-0.053,0.993,1.221,0.305,0.488,30,18,258910.040,-0.055,0.991,1.343,0.427,0.427,30,18,259060.039,-0.058,0.993,1.160,0.366,0.366,30,18,259210.039,-0.052,0.991,1.099,0.183,0.671,30,18,259660.040,-0.054,0.992,1.465,0.183,0.549,30,18,259810.041,-0.056,0.991,1.465,0.305,0.549,30,18,259960.044,-0.057,0.993,1.404,0.305,0.610,30,18,260110.043,-0.057,0.993,1.282,0.366,0.427,30,18,260260.042,-0.055,0.992,1.282,0.183,0.671,30,18,260410.041,-0.053,0.992,1.282,0.305,0.549,30,18,260560.041,-0.052,0.993,1.282,-0.061,0.549,30,18,260710.040,-0.051,0.991,1.038,0.183,0.305,30,18,260860.038,-0.049,0.994,1.160,0.122,0.488,30,18,261010.038,-0.049,0.992,1.221,0.305,0.610,30,18,261160.040,-0.050,0.990,1.343,0.183,0.610,30,18,261310.040,-0.055,0.994,1.465,0.244,0.610,30,18,261460.041,-0.055,0.995,1.587,0.183,0.732,30,18,261610.040,-0.056,0.993,1.282,0.244,0.610,30,18,261760.042,-0.056,0.993,1.221,0.183,0.427,30,18,261910.042,-0.061,0.994,1.465,0.183,0.549,30,18,262210.042,-0.059,0.988,1.282,0.366,0.549,30,18,262360.042,-0.055,0.994,1.221,0.122,0.488,30,18,262510.041,-0.052,0.990,1.099,0.244,0.671,30,18,262660.038,-0.050,0.992,1.282,0.061,0.549,30,18,262810.038,-0.050,0.992,0.977,0.122,0.183,30,18,262960.039,-0.047,0.991,1.282,0.061,0.671,30,18,263110.038,-0.048,0.994,1.282,0.244,0.610,30,18,263260.039,-0.047,0.993,1.099,0.244,0.549,30,18,263410.040,-0.053,0.993,1.404,0.366,0.671,30,18,263560.040,-0.053,0.992,1.343,0.183,0.671,30,18,263710.042,-0.057,0.992,1.343,0.244,0.305,30,18,263860.042,-0.057,0.990,1.221,0.244,0.610,30,18,264010.042,-0.056,0.992,1.465,0.244,0.488,30,18,264160.041,-0.060,0.991,1.343,0.244,0.488,30,18,264310.041,-0.059,0.991,0.793,0.427,-0.061,30,18,264460.040,-0.060,0.994,0.671,0.366,0.183,30,18,264610.040,-0.054,0.992,0.977,0.305,0.488,30,18,264760.039,-0.054,0.992,1.404,0.183,0.610,30,18,264910.040,-0.052,0.991,1.221,0.183,0.732,30,18,265060.039,-0.052,0.993,1.404,0.061,0.610,30,18,265210.040,-0.050,0.994,1.282,0.122,0.610,30,18,265360.040,-0.052,0.988,1.038,0.244,0.488,30,18,265510.039,-0.051,0.995,1.221,0.061,0.732,30,18,265660.043,-0.052,0.990,1.587,0.061,0.671,30,18,265810.040,-0.055,0.994,1.404,0.061,0.671,30,18,265960.039,-0.058,0.996,1.343,0.122,0.671,30,18,266110.039,-0.055,0.989,1.160,0.244,0.671,30,18,266260.039,-0.056,0.994,1.465,0.183,0.610,30,18,266410.037,-0.052,0.990,0.732,0.061,0.366,30,18,266560.039,-0.052,0.992,1.343,0.122,0.610,30,18,266710.041,-0.047,0.993,1.038,0.061,0.732,30,18,266860.042,-0.050,0.993,1.038,0.244,0.549,30,18,267010.042,-0.049,0.992,1.282,0.061,0.305,30,18,267160.043,-0.049,0.992,1.221,0.183,0.427,30,18,267310.039,-0.059,0.989,1.282,0.183,0.488,30,18,268060.039,-0.045,0.987,1.221,0.244,0.610,30,18,268960.039,-0.053,0.997,1.343,0.244,0.549,30,18,269560.041,-0.061,0.987,1.465,0.366,0.610,30,18,270010.042,-0.061,0.994,0.671,0.244,0.549,30,18,270160.043,-0.054,0.990,1.526,0.244,0.549,30,18,270310.042,-0.056,0.993,1.099,0.183,0.732,30,18,270460.040,-0.050,0.991,0.916,0.305,0.366,30,18,270610.040,-0.048,0.991,1.038,0.244,0.427,30,18,270760.041,-0.047,0.992,1.221,0.122,0.671,30,18,270910.040,-0.049,0.993,1.404,0.183,0.549,30,18,271060.040,-0.057,0.990,1.465,0.244,0.610,30,18,271360.040,-0.058,0.990,1.343,0.305,0.732,30,18,271510.041,-0.057,0.991,1.282,0.366,0.610,30,18,271660.041,-0.060,0.990,1.221,0.122,0.366,30,18,271810.042,-0.058,0.992,1.343,0.122,0.549,30,18,271960.041,-0.057,0.993,1.221,0.122,0.549,30,18,272110.042,-0.053,0.993,1.099,0.244,0.488,30,18,272260.039,-0.050,0.991,1.221,0.183,0.366,30,18,272710.039,-0.049,0.990,0.916,0.183,0.366,30,18,272860.037,-0.051,0.990,1.404,0.244,0.488,30,18,273010.039,-0.052,0.993,1.343,0.183,0.427,30,18,273160.039,-0.054,0.993,1.343,0.244,0.549,30,18,273310.042,-0.058,0.992,1.282,0.305,0.366,30,18,273460.041,-0.058,0.994,1.282,0.000,0.610,30,18,273610.043,-0.057,0.993,1.038,0.183,0.366,30,18,273760.042,-0.058,0.990,1.160,0.061,0.488,30,18,273910.041,-0.055,0.994,1.282,0.244,0.671,30,18,274070.041,-0.053,0.992,1.282,0.122,0.610,30,18,274210.039,-0.051,0.994,0.916,0.183,0.488,30,18,274360.038,-0.050,0.992,1.038,0.183,0.610,30,18,274510.040,-0.051,0.992,1.038,0.244,0.610,30,18,274660.040,-0.052,0.991,1.160,0.244,0.610,30,18,274810.040,-0.054,0.992,1.160,0.366,0.488,30,18,274960.041,-0.055,0.993,1.160,0.305,0.366,30,18,275110.041,-0.057,0.993,1.221,0.183,0.427,30,18,275260.040,-0.055,0.990,1.465,0.244,0.549,30,18,275420.041,-0.057,0.992,1.282,0.305,0.488,30,18,275560.040,-0.056,0.991,1.099,0.061,0.305,30,18,275710.039,-0.055,0.993,1.221,0.183,0.427,30,18,275870.040,-0.055,0.995,1.038,0.183,0.610,30,18,276010.038,-0.053,0.992,1.038,0.305,0.610,30,18,276160.038,-0.052,0.990,0.854,0.122,0.183,30,18,276310.039,-0.051,0.992,1.221,0.244,0.610,30,18,276460.039,-0.052,0.990,1.221,0.183,0.732,30,18,276610.039,-0.051,0.995,1.282,0.122,0.488,30,18,276770.039,-0.053,0.992,1.282,0.183,0.488,30,18,276910.041,-0.054,0.993,1.221,0.000,0.610,30,18,277210.042,-0.057,0.992,1.160,0.427,0.366,30,18,277360.040,-0.054,0.990,1.038,0.122,0.366,30,18,277670.042,-0.057,0.991,1.221,0.122,0.488,30,18,277810.039,-0.055,0.995,1.038,0.183,0.366,30,18,277960.039,-0.055,0.992,1.038,0.183,0.549,30,18,278120.040,-0.054,0.991,1.282,0.305,0.610,30,18,278260.041,-0.052,0.989,1.343,0.061,0.549,30,18,278410.039,-0.052,0.991,1.038,0.183,0.427,30,18,278570.039,-0.052,0.993,1.160,0.122,0.549,30,18,278710.040,-0.052,0.991,1.343,0.183,0.610,30,18,278860.041,-0.054,0.991,1.038,0.305,0.305,30,18,279010.042,-0.055,0.993,1.221,0.366,0.549,30,18,279160.042,-0.055,0.991,1.343,0.183,0.549,30,18,279310.042,-0.055,0.992,1.099,0.183,0.427,30,18,279470.041,-0.055,0.992,1.160,0.183,0.549,30,18,279610.041,-0.054,0.992,1.282,0.122,0.549,30,18,279760.039,-0.055,0.991,1.221,0.000,0.427,30,18,279920.040,-0.053,0.993,1.282,0.183,0.793,30,18,280060.038,-0.053,0.992,1.221,0.244,0.549,30,18,280210.039,-0.052,0.993,1.343,0.244,0.610,30,18,280370.041,-0.053,0.993,0.977,0.183,0.427,30,18,280510.041,-0.053,0.993,1.282,0.366,0.671,30,18,280660.042,-0.053,0.993,1.282,0.183,0.488,30,18,280820.042,-0.053,0.992,1.404,0.183,0.610,30,18,280960.041,-0.056,0.991,1.221,0.305,0.610,30,18,281110.040,-0.055,0.992,1.282,0.244,0.549,30,18,281270.041,-0.055,0.991,1.282,0.305,0.732,30,18,281410.040,-0.055,0.993,1.160,0.427,0.610,30,18,281560.040,-0.055,0.994,1.404,0.061,0.549,30,18,281720.041,-0.053,0.993,1.343,0.061,0.488,30,18,281860.040,-0.052,0.992,1.038,0.244,0.244,30,18,282010.041,-0.053,0.992,1.221,0.244,0.610,30,18,282170.040,-0.051,0.993,1.221,0.244,0.549,30,18,282310.042,-0.055,0.997,1.038,0.183,0.244,30,18,282460.040,-0.052,0.989,1.404,0.244,0.610,30,18,282620.038,-0.054,0.991,1.160,0.305,0.549,30,18,282760.041,-0.056,0.994,1.221,0.244,0.488,30,18,282910.042,-0.054,0.992,1.099,0.244,0.488,30,18,283070.042,-0.056,0.994,1.343,0.244,0.549,30,18,283210.042,-0.053,0.992,1.160,0.183,0.488,30,18,283360.040,-0.055,0.993,1.160,0.244,0.488,30,18,283520.040,-0.053,0.992,1.221,0.366,0.549,30,18,283660.039,-0.055,0.993,1.465,0.244,0.488,30,18,283810.040,-0.053,0.992,1.038,0.305,0.488,30,18,283970.039,-0.054,0.994,1.221,0.061,0.610,30,18,284110.041,-0.053,0.991,1.465,0.305,0.671,30,18,284260.041,-0.056,0.993,1.099,0.183,0.305,30,18,284420.039,-0.053,0.992,0.244,0.000,-0.427,30,18,284560.041,-0.054,0.993,0.732,0.427,0.244,30,18,284710.041,-0.054,0.994,0.916,0.488,0.183,30,18,284870.041,-0.054,0.993,1.099,0.244,0.427,30,18,285010.041,-0.056,0.991,1.221,0.122,0.488,30,18,285160.040,-0.054,0.993,1.282,0.305,0.488,30,18,285320.042,-0.056,0.994,1.282,0.122,0.549,30,18,285460.040,-0.055,0.992,1.160,0.366,0.549,30,18,285760.039,-0.054,0.993,1.099,0.122,0.366,30,18,285910.039,-0.053,0.993,1.221,0.183,0.488,30,18,286060.040,-0.051,0.994,1.221,0.183,0.488,30,18,286220.040,-0.052,0.993,0.916,0.305,0.427,30,18,286360.042,-0.052,0.991,1.404,0.061,0.549,30,18,286510.043,-0.053,0.992,1.404,0.183,0.305,30,18,286670.042,-0.052,0.993,1.099,0.305,0.305,30,18,286810.044,-0.054,0.994,1.160,0.244,0.549,30,18,286960.041,-0.055,0.995,1.343,0.427,0.549,30,18,287120.039,-0.056,0.993,1.038,0.244,0.488,30,18,287260.040,-0.054,0.992,1.282,0.183,0.732,30,18,287410.038,-0.056,0.993,1.343,0.244,0.610,30,18,287560.040,-0.053,0.992,1.099,0.061,0.610,30,18,288020.041,-0.052,0.994,1.160,0.183,0.549,30,18,288160.042,-0.052,0.993,0.977,0.427,0.366,30,18,288310.042,-0.053,0.992,1.221,0.366,0.610,30,18,288470.042,-0.053,0.992,1.343,0.305,0.610,30,18,288610.041,-0.056,0.992,1.343,0.305,0.671,30,18,288760.040,-0.055,0.991,1.404,0.305,0.610,30,18,288910.040,-0.056,0.993,1.343,0.244,0.610,30,18,289060.037,-0.056,0.993,1.404,0.244,0.488,30,18,289210.038,-0.055,0.993,1.221,0.183,0.427,30,18,289360.039,-0.053,0.993,1.404,0.183,0.610,30,18,289510.039,-0.054,0.993,1.282,0.061,0.610,30,18,289660.040,-0.054,0.994,1.160,0.427,0.488,30,18,289820.041,-0.054,0.992,1.282,0.183,0.610,30,18,289960.042,-0.053,0.992,1.343,0.183,0.671,30,18,290110.042,-0.052,0.991,1.160,0.183,0.488,30,18,290270.039,-0.052,0.995,1.221,0.061,0.549,30,18,290410.039,-0.054,0.993,1.160,0.244,0.610,30,18,290560.039,-0.055,0.994,1.282,0.244,0.610,30,18,290710.039,-0.055,0.992,1.099,0.061,0.305,30,18,290860.040,-0.056,0.993,1.343,0.122,0.671,30,18,291010.040,-0.055,0.993,1.221,0.244,0.488,30,18,291170.041,-0.055,0.993,1.160,0.183,0.488,30,18,291310.041,-0.054,0.993,1.038,0.183,0.610,30,18,291460.042,-0.052,0.992,1.160,0.183,0.732,30,18,291610.041,-0.053,0.993,1.282,0.244,0.610,30,18,291760.041,-0.052,0.990,0.977,0.305,0.549,30,18,291910.042,-0.055,0.995,1.343,0.305,0.610,30,18,292070.041,-0.053,0.991,1.160,0.122,0.610,30,18,292210.039,-0.056,0.994,1.343,0.061,0.610,30,18,292360.040,-0.054,0.994,0.916,0.183,0.366,30,18,292510.040,-0.055,0.994,1.282,0.427,0.549,30,18,292660.040,-0.054,0.992,1.221,0.183,0.732,30,18,292810.039,-0.054,0.995,1.160,0.244,0.610,30,18,292970.041,-0.055,0.990,1.343,0.244,0.610,30,18,293110.041,-0.055,0.991,1.282,0.244,0.549,30,18,293260.042,-0.054,0.992,1.038,0.244,0.305,30,18,293420.041,-0.056,0.991,1.160,0.061,0.488,30,18,293560.042,-0.054,0.994,1.160,0.183,0.549,30,18,293710.040,-0.053,0.994,1.465,0.122,0.427,30,18,293870.038,-0.053,0.994,1.099,0.244,0.488,30,18,294010.040,-0.053,0.993,1.343,0.183,0.488,30,18,294160.041,-0.053,0.992,1.343,0.305,0.488,30,18,294320.040,-0.054,0.992,1.282,0.183,0.427,30,18,294460.039,-0.053,0.991,1.343,0.183,0.549,30,18,294610.042,-0.053,0.993,1.221,0.244,0.427,30,18,294770.041,-0.054,0.991,1.160,0.183,0.366,30,18,294910.042,-0.055,0.993,1.282,0.366,0.732,30,18,295220.041,-0.055,0.992,1.343,0.122,0.793,30,18,295360.040,-0.053,0.994,1.221,0.061,0.610,30,18,295510.040,-0.053,0.993,1.465,0.183,0.671,30,18,295660.040,-0.054,0.994,1.404,0.122,0.732,30,18,295810.039,-0.053,0.992,1.343,0.183,0.671,30,18,296120.039,-0.053,0.995,1.282,0.244,0.732,30,18,296260.039,-0.053,0.995,1.221,0.183,0.427,30,18,296410.040,-0.053,0.993,1.221,0.122,0.671,30,18,296560.040,-0.053,0.992,1.221,0.183,0.427,30,18,296710.041,-0.053,0.992,1.282,0.122,0.488,30,18,296860.042,-0.054,0.991,1.160,0.183,0.427,30,18,297020.040,-0.055,0.993,1.282,0.305,0.610,30,18,297160.040,-0.054,0.992,1.160,0.183,0.549,30,18,297310.040,-0.055,0.992,1.404,0.183,0.488,30,18,297470.039,-0.053,0.992,1.099,0.305,0.427,30,18,297610.041,-0.054,0.993,1.282,0.061,0.671,30,18,297760.041,-0.052,0.993,1.282,0.183,0.610,30,18,297920.041,-0.052,0.991,1.282,0.000,0.671,30,18,298060.040,-0.052,0.992,1.221,0.183,0.366,30,18,298210.040,-0.054,0.993,1.221,0.244,0.549,30,18,298370.040,-0.053,0.995,1.282,0.305,0.427,30,18,298510.040,-0.054,0.994,1.160,0.305,0.549,30,18,298660.040,-0.055,0.994,1.221,0.183,0.549,30,18,298810.039,-0.055,0.992,1.160,0.183,0.427,30,18,298960.040,-0.055,0.991,1.038,0.244,0.183,30,18,299110.040,-0.056,0.993,1.160,0.305,0.488,30,18,299260.041,-0.054,0.994,1.160,0.244,0.549,30,18,299410.042,-0.054,0.991,1.282,0.305,0.549,30,18,299560.041,-0.054,0.994,1.099,0.305,0.305,30,18,299710.041,-0.052,0.990,1.099,0.366,0.732,30,18,299860.040,-0.052,0.993,1.343,0.244,0.610,30,18,300010.039,-0.051,0.992,0.854,0.244,0.366,30,18,300170.042,-0.052,0.993,1.099,0.244,0.366,30,18,300310.040,-0.054,0.991,1.404,0.122,0.549,30,18,300460.040,-0.054,0.992,1.221,0.183,0.488,30,18,300620.039,-0.057,0.994,1.160,0.305,0.305,30,18,300760.040,-0.055,0.994,1.343,0.305,0.488,30,18,300910.040,-0.055,0.991,1.282,0.305,0.366,30,18,301070.040,-0.055,0.993,1.099,0.061,0.549,30,18,301210.042,-0.053,0.992,1.221,0.122,0.610,30,18,301510.041,-0.052,0.994,1.160,0.183,0.366,30,18,301660.040,-0.053,0.994,1.160,0.305,0.549,30,18,301810.040,-0.053,0.993,1.404,0.244,0.549,30,18,301970.040,-0.053,0.991,1.282,0.122,0.549,30,18,302110.039,-0.054,0.991,0.977,0.305,0.305,30,18,302260.039,-0.054,0.993,1.282,0.366,0.366,30,18,302420.039,-0.054,0.994,1.404,0.305,0.488,30,18,302560.040,-0.055,0.991,1.160,0.183,0.427,30,18,302710.041,-0.054,0.991,1.038,0.366,0.488,30,18,302870.041,-0.056,0.992,1.343,0.244,0.488,30,18,303010.041,-0.052,0.992,1.282,0.183,0.549,30,18,303160.041,-0.055,0.992,0.977,0.244,0.427,30,18,303320.041,-0.053,0.993,1.282,0.244,0.549,30,18,303460.039,-0.052,0.992,1.282,0.061,0.488,30,18,303610.039,-0.052,0.993,1.221,0.183,0.671,30,18,303760.039,-0.054,0.991,1.160,0.305,0.427,30,18,303910.038,-0.053,0.993,1.282,0.305,0.610,30,18,304060.039,-0.054,0.995,1.404,0.305,0.549,30,18,304210.041,-0.054,0.990,0.916,0.305,0.061,30,18,304360.041,-0.055,0.992,0.427,0.000,-0.488,30,18,304510.041,-0.055,0.993,0.183,0.000,-0.610,30,18,304660.042,-0.054,0.993,1.282,0.244,0.671,30,18,304960.041,-0.054,0.994,1.221,0.183,0.610,30,18,305120.040,-0.053,0.992,1.099,0.122,0.427,30,18,305260.038,-0.052,0.991,1.038,0.244,0.488,30,18,305410.040,-0.053,0.991,1.099,0.061,0.427,30,18,305570.038,-0.053,0.993,1.160,0.183,0.427,30,18,305710.038,-0.053,0.993,1.038,0.183,0.305,30,18,305860.039,-0.055,0.993,1.221,0.305,0.549,30,18,306020.041,-0.054,0.993,1.160,0.366,0.549,30,18,306160.041,-0.054,0.991,1.038,0.183,0.488,30,18,306310.041,-0.054,0.993,1.282,0.244,0.488,30,18,306470.040,-0.054,0.991,1.282,0.183,0.671,30,18,306610.042,-0.055,0.994,1.221,0.244,0.671,30,18,306760.040,-0.054,0.994,1.038,0.183,0.366,30,18,306910.042,-0.054,0.990,1.160,0.122,0.549,30,18,307060.039,-0.053,0.991,1.221,0.061,0.549,30,18,307210.040,-0.054,0.992,1.160,0.122,0.366,30,18,307370.039,-0.055,0.993,1.282,0.000,0.549,30,18,307510.037,-0.053,0.992,1.221,0.122,0.366,30,18,307660.038,-0.054,0.993,1.160,0.122,0.549,30,18,307810.040,-0.052,0.990,1.099,0.244,0.488,30,18,307960.040,-0.052,0.990,1.343,0.183,0.488,30,18,308110.040,-0.052,0.993,1.282,0.366,0.549,30,18,308260.039,-0.053,0.992,0.977,0.183,0.244,30,18,308410.041,-0.054,0.990,1.099,0.366,0.305,30,18,308560.042,-0.054,0.992,1.221,0.244,0.610,30,18,308710.041,-0.055,0.992,1.404,0.244,0.549,30,18,308860.041,-0.054,0.993,1.221,0.183,0.427,30,18,309010.039,-0.055,0.992,1.404,0.183,0.610,30,18,309160.040,-0.055,0.993,1.282,0.305,0.549,30,18,309310.039,-0.054,0.992,1.221,0.305,0.549,30,18,309460.039,-0.055,0.992,1.038,0.305,0.366,30,18,309620.040,-0.054,0.992,1.282,0.122,0.671,30,18,309760.040,-0.052,0.990,1.160,0.183,0.427,30,18,309910.041,-0.052,0.991,1.221,0.244,0.610,30,18,310060.040,-0.052,0.990,1.221,0.244,0.488,30,18,310210.040,-0.052,0.993,1.282,0.122,0.549,30,18,310360.040,-0.052,0.991,1.221,0.061,0.244,30,18,310510.039,-0.055,0.992,1.282,0.244,0.549,30,18,310660.041,-0.054,0.993,1.404,0.244,0.610,30,18,310810.040,-0.055,0.990,1.282,0.000,0.427,30,18,310960.040,-0.054,0.992,1.099,0.183,0.427,30,18,311110.040,-0.053,0.992,1.343,0.122,0.427,30,18,311260.039,-0.054,0.992,1.404,0.183,0.488,30,18,311410.040,-0.053,0.994,1.099,0.366,0.366,30,18,311560.041,-0.053,0.991,1.160,0.183,0.488,30,18,311710.040,-0.052,0.992,1.160,0.244,0.488,30,18,311860.041,-0.052,0.993,1.282,0.122,0.549,30,18,312010.042,-0.053,0.991,1.221,0.244,0.427,30,18,312160.040,-0.053,0.992,1.343,0.122,0.427,30,18,312310.041,-0.054,0.992,1.343,0.244,0.488,30,18,312460.040,-0.055,0.993,1.343,0.183,0.366,30,18,312610.039,-0.055,0.994,1.160,0.122,0.427,30,18,312760.038,-0.055,0.994,1.343,0.305,0.610,30,18,312910.040,-0.055,0.992,1.282,0.244,0.610,30,18,313060.041,-0.055,0.992,1.099,0.305,0.366,30,18,313210.041,-0.054,0.991,1.221,0.244,0.610,30,18,313360.040,-0.054,0.991,0.977,0.183,0.549,30,18,313510.040,-0.053,0.992,1.038,0.183,0.488,30,18,313660.041,-0.051,0.993,1.282,0.061,0.610,30,18,313810.040,-0.051,0.992,1.282,-0.061,0.610,30,18,313960.041,-0.051,0.991,1.160,0.183,0.488,30,18,314110.039,-0.052,0.991,1.282,0.122,0.366,30,18,314260.040,-0.052,0.991,1.343,0.305,0.488,30,18,314410.039,-0.055,0.995,1.343,0.366,0.488,30,18,314570.040,-0.053,0.991,0.977,0.305,0.488,30,18,314710.040,-0.055,0.991,1.160,0.305,0.427,30,18,314860.041,-0.053,0.993,1.282,0.122,0.549,30,18,315010.041,-0.055,0.991,1.221,0.305,0.488,30,18,315160.041,-0.054,0.993,1.160,0.244,0.488,30,18,315310.042,-0.053,0.993,1.160,0.183,0.610,30,18,315460.040,-0.054,0.991,1.282,0.000,0.427,30,18,315610.040,-0.053,0.993,1.038,0.183,0.427,30,18,315760.039,-0.053,0.994,1.160,0.244,0.488,30,18,315910.039,-0.052,0.992,1.099,0.244,0.488,30,18,316060.039,-0.054,0.993,1.160,0.244,0.549,30,18,316210.040,-0.052,0.992,0.977,0.183,0.366,30,18,316360.041,-0.053,0.992,1.282,0.366,0.549,30,18,316810.039,-0.055,0.993,1.282,0.061,0.366,30,18,316960.042,-0.055,0.992,1.343,0.122,0.549,30,18,317110.040,-0.056,0.992,1.404,0.122,0.427,30,18,317260.040,-0.054,0.992,1.465,0.122,0.610,30,18,317410.040,-0.053,0.993,1.282,0.305,0.671,30,18,317560.041,-0.053,0.993,1.282,0.122,0.671,30,18,317710.039,-0.054,0.991,1.099,0.244,0.366,30,18,317860.039,-0.054,0.993,1.282,0.244,0.549,30,18,318010.039,-0.052,0.992,1.282,0.183,0.610,30,18,318160.040,-0.052,0.991,1.160,0.122,0.549,30,18,318310.040,-0.054,0.993,1.343,0.183,0.610,30,18,318460.040,-0.053,0.993,1.465,0.122,0.671,30,18,318610.041,-0.053,0.995,1.343,0.305,0.671,30,18,318760.041,-0.053,0.993,1.099,0.244,0.488,30,18,318910.041,-0.054,0.992,1.343,0.061,0.427,30,18,319060.041,-0.054,0.991,1.343,0.061,0.488,30,18,319210.039,-0.055,0.993,1.099,0.183,0.488,30,18,319510.038,-0.054,0.992,1.221,0.122,0.549,30,18,319660.040,-0.053,0.994,1.282,0.122,0.610,30,18,319810.040,-0.053,0.993,1.099,0.183,0.366,30,18,319960.041,-0.052,0.992,1.221,0.244,0.610,30,18,320110.040,-0.052,0.994,1.343,0.183,0.671,30,18,320260.040,-0.052,0.993,1.282,0.122,0.427,30,18,320410.042,-0.053,0.991,1.038,0.122,0.366,30,18,320560.039,-0.053,0.993,1.221,0.427,0.610,30,18,320710.040,-0.054,0.991,1.221,0.122,0.671,30,18,320870.040,-0.055,0.993,1.160,0.244,0.427,30,18,321010.039,-0.054,0.994,1.343,0.244,0.549,30,18,321160.038,-0.055,0.994,1.282,0.183,0.488,30,18,321310.038,-0.055,0.994,1.221,0.244,0.488,30,18,321460.039,-0.054,0.994,1.099,0.183,0.427,30,18,321610.040,-0.053,0.992,1.221,0.244,0.549,30,18,321770.042,-0.053,0.992,1.282,0.244,0.549,30,18,321910.040,-0.053,0.993,1.099,0.244,0.427,30,18,322060.041,-0.053,0.991,1.282,0.305,0.549,30,18,322210.042,-0.052,0.994,1.465,0.244,0.610,30,18,322360.040,-0.052,0.991,1.221,0.183,0.610,30,18,322510.039,-0.054,0.994,1.221,0.305,0.427,30,18,322660.039,-0.055,0.994,1.343,0.244,0.610,30,18,322810.040,-0.055,0.993,1.343,0.244,0.488,30,18,322960.041,-0.055,0.992,1.160,0.183,0.427,30,18,323110.040,-0.054,0.992,1.160,0.122,0.671,30,18,323260.042,-0.055,0.993,1.343,0.244,0.549,30,18,323410.042,-0.054,0.993,1.282,0.183,0.549,30,18,323560.041,-0.055,0.993,1.160,0.244,0.427,30,18,323710.041,-0.055,0.994,1.160,0.244,0.610,30,18,323860.039,-0.052,0.993,1.099,0.305,0.427,30,18,324010.038,-0.054,0.994,1.160,0.244,0.427,30,18,324160.038,-0.053,0.994,1.221,0.122,0.427,30,18,324310.038,-0.053,0.990,1.343,0.305,0.427,30,18,324460.040,-0.053,0.994,0.427,-0.061,-0.122,30,18,324610.040,-0.053,0.993,0.366,0.061,-0.427,30,18,324760.041,-0.053,0.993,0.061,-0.061,-0.977,30,18,324920.042,-0.054,0.995,0.244,0.122,-0.671,30,18,325060.043,-0.054,0.994,1.343,0.244,0.610,30,18,325210.043,-0.054,0.994,1.282,0.366,0.488,30,18,325360.042,-0.053,0.993,1.282,0.305,0.427,30,18,325510.041,-0.055,0.993,0.793,0.366,0.183,30,18,325660.040,-0.055,0.991,1.221,0.244,0.549,30,18,325810.037,-0.056,0.994,1.221,0.183,0.488,30,18,326110.037,-0.055,0.992,1.282,0.061,0.488,30,18,326260.039,-0.054,0.993,1.160,0.305,0.549,30,18,326410.039,-0.053,0.993,1.343,0.122,0.488,30,18,326560.041,-0.054,0.994,1.099,0.122,0.427,30,18,326710.042,-0.053,0.994,1.221,0.183,0.366,30,18,327160.042,-0.053,0.993,1.221,0.122,0.610,30,18,327310.041,-0.055,0.993,1.160,0.366,0.610,30,18,327460.040,-0.054,0.993,1.221,0.183,0.549,30,18,327610.038,-0.054,0.993,1.099,0.183,0.549,30,18,327760.037,-0.054,0.994,1.282,0.183,0.610,30,18,327910.038,-0.055,0.994,1.221,0.061,0.549,30,18,328060.039,-0.055,0.994,1.160,0.244,0.427,30,18,328210.040,-0.054,0.993,1.099,0.305,0.488,30,18,328360.040,-0.053,0.992,1.404,0.305,0.549,30,18,328510.044,-0.051,0.993,1.282,0.183,0.610,30,18,328660.042,-0.053,0.993,1.343,0.183,0.610,30,18,328960.040,-0.052,0.992,1.282,0.183,0.671,30,18,329110.038,-0.052,0.994,1.221,0.183,0.366,30,18,329260.038,-0.053,0.993,1.465,0.061,0.671,30,18,329410.037,-0.053,0.994,1.465,0.183,0.610,30,18,329560.038,-0.054,0.994,1.221,0.122,0.488,30,18,329710.040,-0.055,0.992,1.282,0.305,0.305,30,18,329860.040,-0.053,0.994,1.282,0.183,0.610,30,18,330010.042,-0.054,0.992,1.404,0.122,0.671,30,18,330160.043,-0.053,0.993,1.221,0.244,0.610,30,18,330310.042,-0.054,0.992,1.160,0.183,0.549,30,18,330460.042,-0.055,0.993,1.465,0.183,0.488,30,18,330610.042,-0.055,0.995,1.282,0.183,0.549,30,18,330760.042,-0.055,0.993,0.916,0.366,0.244,30,18,330910.041,-0.054,0.995,1.343,0.122,0.488,30,18,331060.039,-0.055,0.992,1.221,0.366,0.488,30,18,331210.039,-0.055,0.994,1.343,0.366,0.610,30,18,331360.038,-0.051,0.993,1.160,0.244,0.488,30,18,331510.039,-0.053,0.993,1.404,0.366,0.549,30,18,331660.041,-0.053,0.993,1.343,0.122,0.549,30,18,331810.042,-0.055,0.992,1.160,0.305,0.488,30,18,331960.041,-0.054,0.994,1.282,0.183,0.671,30,18,332110.043,-0.053,0.992,1.221,0.183,0.488,30,18,332260.043,-0.053,0.994,1.343,0.183,0.488,30,18,332410.043,-0.054,0.996,0.977,0.305,0.427,30,18,332560.041,-0.055,0.990,1.282,0.305,0.549,30,18,332710.040,-0.054,0.995,1.343,0.183,0.549,30,18,332860.039,-0.056,0.992,0.916,0.305,0.305,30,18,333010.039,-0.055,0.991,1.404,0.244,0.610,30,18,333160.039,-0.052,0.993,1.221,0.183,0.488,30,18,333310.041,-0.054,0.992,1.221,0.183,0.549,30,18,333460.039,-0.052,0.993,1.038,0.244,0.610,30,18,333610.038,-0.051,0.997,1.282,0.244,0.549,30,18,333910.041,-0.053,0.993,0.977,0.366,0.366,30,18,334060.040,-0.053,0.994,1.343,0.366,0.488,30,18,334210.041,-0.052,0.995,1.160,0.183,0.549,30,18,334360.041,-0.053,0.993,1.221,0.183,0.610,30,18,334510.040,-0.055,0.993,1.221,0.427,0.549,30,18,334660.040,-0.055,0.994,1.099,0.244,0.610,30,18,334810.041,-0.056,0.992,1.404,0.366,0.610,30,18,334960.041,-0.056,0.993,1.099,0.244,0.488,30,18,335110.041,-0.055,0.993,1.221,0.122,0.671,30,18,335260.042,-0.054,0.993,1.404,0.183,0.793,30,18,335410.041,-0.053,0.992,1.160,0.000,0.366,30,18,335560.040,-0.055,0.993,1.282,0.244,0.671,30,18,335710.040,-0.052,0.994,1.160,0.061,0.671,30,18,335860.040,-0.053,0.994,1.221,0.305,0.427,30,18,336010.039,-0.052,0.994,1.221,0.244,0.610,30,18,336160.041,-0.054,0.993,1.526,0.122,0.427,30,18,336310.039,-0.054,0.993,1.282,0.061,0.427,30,18,336460.040,-0.053,0.990,1.465,0.183,0.610,30,18,336610.042,-0.054,0.994,1.343,0.244,0.732,30,18,336760.042,-0.054,0.995,1.343,0.244,0.549,30,18,336910.041,-0.054,0.993,1.160,0.244,0.427,30,18,337060.039,-0.055,0.994,0.977,0.061,0.671,30,18,337210.041,-0.053,0.993,1.282,0.244,0.671,30,18,337360.040,-0.054,0.996,1.160,0.061,0.488,30,18,337510.040,-0.052,0.995,1.160,0.183,0.610,30,18,337660.040,-0.053,0.995,1.160,0.305,0.610,30,18,337820.039,-0.052,0.995,1.282,0.122,0.671,30,18,337960.040,-0.052,0.995,1.221,0.061,0.488,30,18,338110.040,-0.051,0.992,1.282,0.122,0.427,30,18,338260.040,-0.053,0.993,1.343,0.000,0.549,30,18,338410.041,-0.055,0.994,1.099,0.244,0.427,30,18,338860.039,-0.055,0.993,1.343,0.244,0.488,30,18,339010.040,-0.055,0.994,0.977,0.122,0.549,30,18,339160.040,-0.054,0.993,1.282,0.061,0.671,30,18,339310.039,-0.054,0.992,1.282,0.122,0.549,30,18,339460.040,-0.053,0.992,1.221,0.305,0.488,30,18,339610.041,-0.053,0.992,1.282,0.122,0.671,30,18,339760.042,-0.052,0.994,1.282,0.183,0.549,30,18,339910.042,-0.054,0.994,1.221,0.061,0.610,30,18,340060.040,-0.052,0.994,0.977,0.366,0.366,30,18,340210.040,-0.053,0.993,1.343,0.122,0.427,30,18,340360.040,-0.054,0.993,1.099,0.244,0.366,30,18,340510.039,-0.057,0.994,1.160,0.305,0.427,30,18,340660.039,-0.056,0.992,1.282,0.305,0.610,30,18,340810.039,-0.055,0.992,1.343,0.061,0.488,30,18,340960.041,-0.054,0.993,1.282,0.244,0.549,30,18,341110.039,-0.054,0.992,1.038,0.427,0.549,30,18,341260.041,-0.053,0.995,1.160,0.183,0.549,30,18,341560.041,-0.052,0.994,1.160,0.366,0.488,30,18,341710.040,-0.052,0.994,1.282,0.183,0.488,30,18,341860.040,-0.054,0.995,1.221,0.183,0.488,30,18,342010.039,-0.053,0.993,1.343,0.183,0.549,30,18,342160.040,-0.054,0.994,0.977,0.305,0.427,30,18,342310.040,-0.055,0.992,1.282,0.122,0.488,30,18,342460.040,-0.054,0.993,1.282,0.183,0.549,30,18,342610.042,-0.054,0.994,1.282,0.183,0.366,30,18,342760.039,-0.055,0.993,1.160,0.244,0.366,30,18,342910.040,-0.055,0.994,1.160,0.244,0.671,30,18,343060.042,-0.054,0.993,1.160,0.183,0.549,30,18,343210.040,-0.052,0.994,0.977,0.305,0.427,30,18,343810.041,-0.053,0.993,0.366,0.061,-0.244,30,18,344710.041,-0.053,0.994,0.977,0.183,0.427,30,18,345160.040,-0.053,0.994,1.038,0.061,0.183,30,18,345310.040,-0.054,0.994,1.221,0.366,0.488,30,18,345460.040,-0.054,0.993,1.282,0.305,0.610,30,18,345610.040,-0.054,0.993,1.160,0.122,0.244,30,18,345760.039,-0.054,0.993,1.221,0.122,0.427,30,18,345910.039,-0.054,0.993,1.282,0.305,0.488,30,18,346060.039,-0.053,0.991,1.221,0.183,0.549,30,18,346210.040,-0.054,0.992,1.160,0.183,0.671,30,18,346360.040,-0.054,0.994,1.282,0.305,0.549,30,18,346510.040,-0.055,0.993,1.282,0.122,0.549,30,18,346660.040,-0.054,0.993,1.221,0.244,0.549,30,18,346810.040,-0.055,0.992,1.282,0.366,0.549,30,18,346960.041,-0.053,0.993,1.221,0.183,0.671,30,18,347110.040,-0.053,0.993,1.221,0.122,0.671,30,18,347260.039,-0.053,0.993,1.282,0.183,0.549,30,18,347860.039,-0.053,0.993,1.221,0.305,0.244,30,18,348010.040,-0.054,0.992,1.404,0.366,0.732,30,18,348160.040,-0.053,0.993,1.282,0.427,0.549,30,18,348310.040,-0.054,0.994,1.221,0.305,0.488,30,18,348460.041,-0.053,0.994,0.977,0.427,0.671,30,18,348610.041,-0.054,0.992,1.282,0.366,0.610,30,18,348760.040,-0.054,0.994,1.282,0.427,0.549,30,18,348910.040,-0.054,0.995,1.160,0.122,0.549,30,18,349060.040,-0.053,0.992,1.099,0.427,0.488,30,18,349210.039,-0.052,0.993,1.160,0.122,0.488,30,18,349360.040,-0.052,0.992,1.343,0.061,0.427,30,18,349510.040,-0.052,0.993,1.099,0.061,0.366,30,18,349660.039,-0.053,0.994,1.343,0.427,0.549,30,18,349810.039,-0.053,0.994,1.099,0.305,0.366,30,18,349960.040,-0.054,0.995,1.221,0.122,0.488,30,18,350110.041,-0.054,0.993,1.160,0.122,0.488,30,18,350260.041,-0.053,0.993,1.160,0.244,0.549,30,18,350410.039,-0.053,0.992,1.221,0.305,0.488,30,18,350560.039,-0.053,0.992,1.221,0.366,0.549,30,18,350710.040,-0.053,0.993,1.099,0.183,0.366,30,18,351010.039,-0.053,0.993,1.221,0.305,0.488,30,18,351160.040,-0.054,0.992,1.282,0.305,0.549,30,18,351310.041,-0.054,0.993,1.038,0.244,0.427,30,18,351460.040,-0.052,0.993,1.160,0.244,0.488,30,18,351910.039,-0.054,0.994,1.282,0.183,0.427,30,18,352360.041,-0.054,0.996,1.038,0.366,0.244,30,18,352510.039,-0.054,0.992,1.343,0.305,0.427,30,18,352660.040,-0.053,0.993,1.282,0.244,0.488,30,18,352810.039,-0.053,0.992,1.404,0.305,0.366,30,18,352960.040,-0.053,0.993,1.221,0.366,0.549,30,18,353110.040,-0.052,0.992,1.160,0.305,0.366,30,18,353260.040,-0.051,0.994,1.282,0.244,0.488,30,18,353410.040,-0.053,0.992,0.977,0.183,0.366,30,18,353560.040,-0.054,0.991,1.099,0.244,0.549,30,18,353710.040,-0.055,0.993,1.221,0.183,0.427,30,18,353860.041,-0.054,0.994,1.282,0.427,0.366,30,18,354010.040,-0.054,0.993,1.160,0.244,0.305,30,18,354160.041,-0.054,0.992,1.221,0.366,0.610,30,18,354310.039,-0.054,0.994,1.221,0.305,0.488,30,18,354460.041,-0.053,0.994,1.099,0.366,0.610,30,18,354610.039,-0.053,0.993,0.977,0.427,0.427,30,18,354760.039,-0.053,0.992,1.221,0.366,0.549,30,18,354910.040,-0.052,0.990,1.343,0.244,0.549,30,18,355060.040,-0.053,0.994,1.099,0.610,0.366,30,18,355510.042,-0.053,0.994,1.038,0.305,0.366,30,18,355660.040,-0.054,0.993,1.343,0.244,0.549,30,18,355810.041,-0.054,0.992,1.282,0.183,0.488,30,18,355960.039,-0.054,0.990,1.221,0.183,0.488,30,18,356260.039,-0.053,0.993,1.099,0.305,0.610,30,18,356410.040,-0.055,0.995,1.160,0.305,0.610,30,18,356560.041,-0.055,0.995,1.099,0.427,0.305,30,18,356710.041,-0.054,0.994,1.099,0.366,0.366,30,18,356860.042,-0.052,0.992,1.282,0.122,0.549,30,18,357010.041,-0.052,0.992,1.343,0.244,0.488,30,18,357160.040,-0.055,0.993,1.160,0.305,0.488,30,18,357310.040,-0.053,0.994,1.343,0.366,0.610,30,18,357460.040,-0.053,0.992,1.221,0.183,0.488,30,18,357610.040,-0.052,0.994,1.160,0.305,0.366,30,18,357760.039,-0.054,0.992,1.221,0.183,0.488,30,18,357910.038,-0.054,0.993,1.282,0.366,0.488,30,18,358060.038,-0.054,0.994,1.221,0.366,0.549,30,18,358210.039,-0.053,0.993,1.160,0.183,0.549,30,18,358360.040,-0.054,0.993,1.282,0.122,0.671,30,18,358660.040,-0.054,0.993,1.160,0.366,0.427,30,18,358810.040,-0.054,0.995,1.221,0.366,0.671,30,18,359110.041,-0.054,0.995,1.099,0.305,0.732,30,18,359410.040,-0.054,0.989,1.465,0.305,0.610,30,18,359560.039,-0.053,0.994,1.282,0.244,0.610,30,18,359710.039,-0.054,0.992,1.221,0.244,0.366,30,18,359860.039,-0.054,0.990,1.282,0.061,0.793,30,18,360010.040,-0.052,0.994,1.343,0.244,0.610,30,18,360160.040,-0.052,0.993,0.977,0.305,0.244,30,18,360310.040,-0.053,0.995,1.282,0.305,0.549,30,18,360460.040,-0.055,0.992,1.404,0.427,0.549,30,18,360610.041,-0.052,0.994,1.160,0.366,0.488,30,18,360760.041,-0.054,0.993,1.038,0.244,0.305,30,18,360910.041,-0.055,0.993,1.282,0.305,0.488,30,18,361060.040,-0.053,0.995,1.282,0.122,0.610,30,18,361210.040,-0.055,0.995,1.282,0.305,0.610,30,18,361360.040,-0.052,0.994,1.221,0.183,0.549,30,18,361510.040,-0.051,0.993,1.099,0.244,0.427,30,18,361810.039,-0.054,0.993,1.282,0.305,0.488,30,18,362260.040,-0.056,0.993,1.160,0.244,0.244,30,18,362410.042,-0.054,0.994,1.282,0.244,0.610,30,18,362560.042,-0.054,0.994,1.282,0.366,0.549,30,18,362710.041,-0.055,0.994,1.282,0.305,0.549,30,18,362860.041,-0.055,0.993,1.343,0.122,0.549,30,18,363010.040,-0.053,0.993,1.343,0.244,0.732,30,18,363160.038,-0.053,0.995,1.221,0.061,0.793,30,18,363310.040,-0.054,0.993,1.099,0.122,0.244,30,18,363460.040,-0.054,0.994,1.282,0.244,0.549,30,18,363610.040,-0.054,0.994,1.221,0.183,0.549,30,18,364060.039,-0.052,0.994,1.282,0.183,0.366,30,18,364210.041,-0.053,0.991,1.282,0.305,0.549,30,18,364360.040,-0.053,0.996,1.343,0.366,0.549,30,18,364510.041,-0.053,0.995,1.404,0.305,0.488,30,18,364660.041,-0.053,0.994,1.221,0.244,0.305,30,18,364810.040,-0.054,0.996,0.305,0.183,-0.488,30,18,364960.041,-0.055,0.993,0.793,0.366,-0.061,30,18,365110.038,-0.054,0.996,1.038,0.305,0.427,30,18,365260.040,-0.056,0.994,1.526,0.366,0.549,30,18,365410.040,-0.052,0.995,1.099,0.061,0.549,30,18,365560.040,-0.054,0.993,1.404,0.244,0.366,30,18,365710.041,-0.052,0.995,1.038,0.305,0.732,30,18,365860.042,-0.053,0.993,1.099,0.122,0.732,30,18,366010.041,-0.053,0.992,1.282,0.244,0.427,30,18,366160.041,-0.053,0.994,1.160,0.305,0.549,30,18,366310.042,-0.055,0.990,1.404,0.183,0.610,30,18,366460.042,-0.055,0.995,1.099,0.183,0.244,30,18,366610.041,-0.055,0.994,1.282,0.183,0.488,30,18,366760.038,-0.055,0.994,0.977,0.122,0.549,30,18,366910.038,-0.053,0.995,0.854,0.122,0.427,30,18,367060.039,-0.054,0.994,1.282,0.000,0.610,30,18,367210.039,-0.052,0.993,1.282,0.244,0.488,30,18,367360.039,-0.053,0.996,1.221,0.305,0.427,30,18,367510.040,-0.053,0.995,1.160,0.183,0.610,30,18,367660.041,-0.052,0.993,1.160,0.122,0.488,30,18,367810.040,-0.051,0.995,1.282,0.244,0.488,30,18,367960.039,-0.052,0.995,1.038,0.305,0.366,30,18,368110.039,-0.053,0.994,1.282,0.244,0.488,30,18,368260.038,-0.054,0.995,1.343,0.183,0.427,30,18,368410.039,-0.054,0.994,1.160,0.183,0.427,30,18,368560.040,-0.057,0.991,1.282,0.183,0.305,30,18,368710.040,-0.056,0.995,1.221,0.244,0.427,30,18,368860.040,-0.058,0.991,1.221,0.305,0.549,30,18,369010.041,-0.056,0.995,1.160,0.183,0.366,30,18,369160.040,-0.055,0.992,1.160,0.183,0.549,30,18,369310.041,-0.052,0.991,1.282,0.122,0.610,30,18,369460.039,-0.052,0.995,1.221,0.183,0.366,30,18,369610.042,-0.050,0.990,1.038,0.305,0.244,30,18,369760.042,-0.053,0.993,1.099,0.427,0.366,30,18,369910.040,-0.052,0.995,1.221,0.244,0.366,30,18,370060.040,-0.051,0.992,1.404,0.305,0.427,30,18,370210.039,-0.052,0.993,1.282,0.183,0.610,30,18,370360.039,-0.054,0.994,1.465,0.061,0.549,30,18,370510.039,-0.056,0.992,1.221,0.366,0.549,30,18,370660.038,-0.056,0.992,1.221,0.244,0.488,30,18,370810.041,-0.054,0.994,1.221,0.122,0.488,30,18,371110.041,-0.053,0.992,0.977,0.427,0.244,30,18,371260.040,-0.054,0.993,1.160,0.244,0.732,30,18,371410.040,-0.053,0.995,1.282,0.122,0.671,30,18,371560.038,-0.050,0.994,0.916,0.366,0.305,30,18,371710.040,-0.050,0.993,1.160,0.366,0.488,30,18,371860.037,-0.053,0.997,1.465,0.244,0.610,30,18,372160.039,-0.053,0.994,1.038,0.427,0.488,30,18,372310.041,-0.056,0.995,1.343,0.244,0.488,30,18,372460.042,-0.053,0.994,1.282,0.244,0.549,30,18,372610.042,-0.056,0.993,0.977,0.244,0.366,30,18,372760.041,-0.055,0.994,1.099,0.183,0.366,30,18,372910.041,-0.055,0.994,1.099,0.183,0.427,30,18,373060.041,-0.055,0.994,0.977,0.244,0.366,30,18,373210.038,-0.052,0.996,1.282,0.244,0.488,30,18,373360.038,-0.053,0.994,1.282,0.305,0.427,30,18,373510.039,-0.054,0.995,1.282,0.244,0.488,30,18,373660.041,-0.054,0.993,1.099,0.183,0.305,30,18,373810.040,-0.054,0.993,1.160,0.244,0.549,30,18,373960.040,-0.053,0.995,1.282,0.183,0.610,30,18,374110.040,-0.053,0.993,1.343,0.244,0.366,30,18,374260.042,-0.054,0.996,0.916,0.366,0.366,30,18,374410.040,-0.052,0.995,1.160,0.183,0.549,30,18,374710.040,-0.054,0.994,1.099,0.183,0.427,30,18,374860.039,-0.054,0.993,1.221,0.183,0.549,30,18,375010.040,-0.054,0.996,1.160,0.244,0.427,30,18,375310.039,-0.055,0.994,0.916,0.305,0.122,30,18,375460.038,-0.052,0.995,1.038,0.183,0.732,30,18,375610.040,-0.051,0.994,1.221,0.244,0.610,30,18,375760.040,-0.053,0.994,1.099,0.183,0.488,30,18,375910.040,-0.053,0.993,1.282,0.305,0.427,30,18,376060.041,-0.054,0.994,1.160,0.305,0.427,30,18,376210.042,-0.053,0.995,1.160,0.061,0.305,30,18,376360.041,-0.054,0.994,1.282,0.305,0.488,30,18,376510.042,-0.056,0.993,1.221,0.061,0.488,30,18,376660.040,-0.056,0.994,1.221,0.244,0.549,30,18,376810.040,-0.054,0.994,1.099,0.244,0.305,30,18,376960.041,-0.054,0.994,1.038,0.183,0.427,30,18,377410.040,-0.053,0.995,1.221,0.122,0.488,30,18,377560.040,-0.051,0.994,1.160,0.122,0.488,30,18,377710.040,-0.050,0.994,1.282,0.366,0.671,30,18,377860.040,-0.053,0.994,1.038,0.366,0.427,30,18,378010.039,-0.053,0.994,1.282,0.305,0.671,30,18,378160.041,-0.055,0.994,1.343,0.427,0.488,30,18,378310.041,-0.056,0.994,1.404,0.244,0.549,30,18,378460.041,-0.055,0.993,1.099,0.488,0.244,30,18,378610.039,-0.053,0.993,1.343,0.183,0.671,30,18,378760.040,-0.053,0.996,1.343,0.183,0.488,30,18,378910.040,-0.054,0.993,1.343,0.366,0.488,30,18,379060.040,-0.053,0.993,1.404,0.244,0.610,30,18,379210.039,-0.053,0.994,1.404,0.122,0.610,30,18,379360.041,-0.054,0.995,1.282,0.122,0.427,30,18,379510.039,-0.054,0.994,1.465,0.366,0.488,30,18,379660.040,-0.053,0.996,1.282,0.122,0.610,30,18,379810.039,-0.053,0.993,1.038,0.183,0.427,30,18,379960.039,-0.052,0.994,1.099,0.305,0.427,30,18,380110.038,-0.053,0.995,1.221,0.244,0.427,30,18,380260.040,-0.053,0.995,1.221,0.305,0.549,30,18,380410.041,-0.054,0.993,1.099,0.305,0.427,30,18,380560.041,-0.054,0.995,1.282,0.061,0.610,30,18,380710.041,-0.054,0.991,1.404,0.305,0.610,30,18,380860.041,-0.054,0.992,1.282,0.244,0.549,30,18,381010.040,-0.052,0.996,1.099,0.244,0.366,30,18,381160.040,-0.053,0.994,1.160,0.122,0.366,30,18,381610.039,-0.053,0.995,1.038,0.122,0.366,30,18,381760.040,-0.052,0.994,1.343,0.122,0.671,30,18,381910.040,-0.053,0.995,1.221,0.305,0.549,30,18,382060.039,-0.054,0.992,1.099,0.305,0.366,30,18,382210.042,-0.054,0.995,1.465,0.305,0.549,30,18,382360.041,-0.051,0.993,1.160,0.183,0.488,30,18,382510.041,-0.052,0.995,1.160,0.244,0.488,30,18,382660.041,-0.053,0.994,1.038,0.183,0.305,30,18,382810.040,-0.054,0.994,1.343,0.244,0.671,30,18,382960.040,-0.054,0.994,1.343,0.061,0.549,30,18,383110.039,-0.055,0.994,0.916,0.122,0.305,30,18,383260.039,-0.054,0.996,1.160,0.122,0.488,30,18,383410.038,-0.055,0.994,1.404,0.183,0.549,30,18,383560.039,-0.056,0.994,1.404,0.305,0.549,30,18,383710.041,-0.054,0.994,1.221,0.305,0.488,30,18,383860.040,-0.053,0.994,1.404,0.244,0.671,30,18,384610.040,-0.053,0.995,1.038,0.183,0.122,30,18,384760.039,-0.052,0.994,0.549,0.183,-0.366,30,18,384910.038,-0.054,0.994,0.183,-0.061,-0.488,30,18,385060.039,-0.056,0.996,0.305,0.183,-0.610,30,18,385210.039,-0.057,0.994,1.282,0.427,0.488,30,18,385360.039,-0.055,0.993,1.221,0.244,0.549,30,18,385510.040,-0.054,0.994,1.343,0.305,0.549,30,18,385660.041,-0.055,0.993,1.221,0.244,0.427,30,18,385810.040,-0.055,0.995,1.221,0.427,0.610,30,18,385960.044,-0.053,0.995,1.282,0.366,0.549,30,18,386110.043,-0.054,0.992,0.977,0.183,0.366,30,18,386260.041,-0.052,0.994,1.160,0.244,0.427,30,18,386410.039,-0.050,0.994,1.282,0.305,0.427,30,18,386560.038,-0.051,0.995,1.343,0.183,0.610,30,18,386710.038,-0.054,0.996,1.038,0.244,0.427,30,18,386860.037,-0.055,0.992,1.160,0.244,0.549,30,18,387010.040,-0.054,0.995,1.282,0.244,0.549,30,18,387160.041,-0.055,0.995,0.977,0.366,0.305,30,18,387310.042,-0.056,0.994,1.282,0.305,0.427,30,18,387460.042,-0.055,0.994,1.160,0.183,0.610,30,18,387610.042,-0.056,0.993,1.404,0.366,0.610,30,18,387760.041,-0.053,0.995,1.099,0.122,0.488,30,18,387910.040,-0.053,0.993,1.160,0.305,0.549,30,18,388060.039,-0.054,0.994,1.343,0.305,0.549,30,18,388210.039,-0.053,0.994,1.099,0.183,0.488,30,18,388360.037,-0.051,0.994,1.404,0.122,0.549,30,18,388660.038,-0.050,0.993,1.221,0.305,0.610,30,18,388810.038,-0.052,0.994,1.282,0.366,0.488,30,18,388960.040,-0.053,0.994,1.465,0.305,0.671,30,18,389110.043,-0.056,0.994,1.465,0.244,0.549,30,18,389260.043,-0.056,0.994,1.343,0.305,0.427,30,18,389410.043,-0.055,0.994,1.160,0.305,0.488,30,18,389560.037,-0.052,0.994,1.282,0.183,0.549,30,18,390160.038,-0.051,0.995,1.221,0.244,0.488,30,18,390310.038,-0.053,0.995,1.282,0.244,0.610,30,18,390460.040,-0.053,0.994,1.404,0.244,0.671,30,18,390610.040,-0.054,0.993,1.404,0.244,0.671,30,18,390760.041,-0.054,0.994,1.160,0.183,0.427,30,18,390910.041,-0.053,0.994,1.282,0.366,0.610,30,18,391060.042,-0.052,0.994,1.404,0.244,0.610,30,18,391210.041,-0.053,0.995,1.282,0.305,0.488,30,18,391360.040,-0.055,0.993,1.221,0.244,0.549,30,18,391510.040,-0.054,0.994,1.282,0.061,0.610,30,18,391660.038,-0.055,0.995,1.221,0.427,0.610,30,18,391810.038,-0.052,0.994,1.221,0.183,0.488,30,18,391960.039,-0.053,0.994,1.465,0.305,0.549,30,18,392110.039,-0.053,0.996,1.343,0.183,0.671,30,18,392260.040,-0.054,0.992,1.282,0.061,0.549,30,18,392410.041,-0.052,0.994,1.038,0.122,0.427,30,18,392560.041,-0.051,0.992,1.282,0.122,0.488,30,18,392710.041,-0.052,0.993,1.343,0.122,0.610,30,18,392860.038,-0.055,0.994,1.221,0.366,0.549,30,18,393310.038,-0.054,0.994,1.282,0.122,0.366,30,18,393460.040,-0.053,0.992,1.160,0.000,0.305,30,18,393610.038,-0.054,0.994,1.282,0.305,0.488,30,18,393760.040,-0.054,0.993,1.282,0.244,0.610,30,18,393910.039,-0.052,0.994,1.282,0.305,0.183,30,18,394060.039,-0.052,0.993,1.099,0.305,0.549,30,18,394210.040,-0.052,0.994,1.221,0.305,0.671,30,18,394360.041,-0.053,0.992,1.404,0.122,0.549,30,18,394510.042,-0.052,0.994,1.160,0.183,0.610,30,18,394660.040,-0.052,0.995,1.282,0.366,0.549,30,18,394810.039,-0.052,0.995,1.282,0.244,0.732,30,18,394960.040,-0.056,0.996,1.160,0.488,0.427,30,18,395110.042,-0.055,0.992,1.160,0.244,0.610,30,18,395410.038,-0.053,0.994,1.343,0.183,0.488,30,18,395560.041,-0.053,0.993,1.221,0.244,0.549,30,18,395710.043,-0.056,0.994,1.465,0.183,0.549,30,18,395860.041,-0.052,0.994,1.343,0.122,0.610,30,18,396010.038,-0.052,0.992,1.404,0.183,0.671,30,18,396160.038,-0.052,0.996,1.282,0.122,0.671,30,18,396310.038,-0.052,0.995,1.404,0.244,0.549,30,18,396460.039,-0.055,0.992,1.160,0.366,0.427,30,18,396610.039,-0.053,0.994,1.343,0.244,0.610,30,18,396760.041,-0.055,0.993,1.404,0.183,0.427,30,18,396910.040,-0.051,0.994,1.038,0.183,0.427,30,18,397210.040,-0.051,0.994,1.221,0.244,0.488,30,18,397360.041,-0.051,0.993,1.343,0.244,0.549,30,18,397510.041,-0.053,0.992,1.221,0.244,0.549,30,18,397660.039,-0.055,0.993,1.343,0.366,0.427,30,18,397810.040,-0.056,0.992,1.221,0.122,0.610,30,18,397960.040,-0.055,0.994,1.038,0.366,0.183,30,18,398260.039,-0.055,0.995,1.404,0.183,0.610,30,18,398410.041,-0.051,0.994,1.038,0.305,0.305,30,18,398710.041,-0.050,0.994,1.404,0.244,0.427,30,18,398860.041,-0.051,0.993,1.160,0.183,0.549,30,18,399010.040,-0.052,0.991,1.343,0.305,0.427,30,18,399160.041,-0.054,0.993,1.221,0.244,0.366,30,18,399310.040,-0.054,0.995,1.282,0.427,0.549,30,18,399460.039,-0.054,0.993,1.343,0.183,0.549,30,18,399610.041,-0.056,0.993,1.099,0.244,0.305,30,18,399760.041,-0.057,0.994,1.282,0.183,0.427,30,18,399910.040,-0.056,0.995,1.160,0.244,0.549,30,18,400060.041,-0.056,0.993,1.221,0.366,0.549,30,18,400210.041,-0.055,0.992,1.282,0.244,0.488,30,18,400360.042,-0.054,0.994,1.343,0.244,0.488,30,18,400510.041,-0.053,0.994,1.282,0.366,0.427,30,18,400660.041,-0.053,0.993,1.038,0.183,0.305,30,18,400810.039,-0.051,0.995,1.221,0.244,0.488,30,18,400960.040,-0.052,0.995,1.404,0.183,0.549,30,18,401110.041,-0.053,0.993,1.465,0.183,0.610,30,18,401260.038,-0.053,0.994,1.343,0.183,0.488,30,18,401410.041,-0.056,0.991,1.282,0.183,0.549,30,18,401560.039,-0.055,0.993,1.343,0.183,0.488,30,18,401710.042,-0.054,0.994,1.038,0.366,0.427,30,18,401860.042,-0.054,0.995,1.038,0.366,0.732,30,18,402160.041,-0.054,0.992,1.099,0.244,0.366,30,18,402310.040,-0.051,0.995,1.221,0.122,0.488,30,18,402460.040,-0.052,0.993,1.343,0.244,0.549,30,18,402610.039,-0.052,0.992,1.221,0.000,0.488,30,18,403060.040,-0.052,0.995,1.160,0.122,0.427,30,18,403210.040,-0.053,0.994,1.282,0.305,0.488,30,18,403360.039,-0.055,0.994,1.282,0.244,0.549,30,18,403510.040,-0.054,0.995,1.343,0.305,0.488,30,18,404110.039,-0.053,0.992,1.343,0.122,0.549,30,18,404560.039,-0.052,0.995,1.221,0.244,0.671,30,18,404710.039,-0.052,0.994,0.916,0.244,0.122,30,18,405010.040,-0.053,0.993,0.854,0.366,0.061,30,18,405160.041,-0.053,0.994,0.732,0.427,0.305,30,18,405310.042,-0.054,0.994,0.854,0.305,0.244,30,18,405460.041,-0.054,0.992,1.282,0.305,0.549,30,18,405610.041,-0.054,0.995,1.160,0.122,0.549,30,18,405760.042,-0.056,0.994,1.221,0.183,0.427,30,18,405910.040,-0.055,0.993,1.038,0.305,0.305,30,18,406060.039,-0.054,0.994,1.282,0.061,0.610,30,18,406210.039,-0.053,0.994,1.343,0.244,0.610,30,18,406360.039,-0.052,0.994,1.221,0.183,0.549,30,18,406510.039,-0.052,0.995,1.160,0.183,0.366,30,18,406660.040,-0.054,0.995,1.221,0.305,0.610,30,18,406810.040,-0.054,0.994,0.977,0.244,0.366,30,18,406960.042,-0.052,0.993,1.404,0.305,0.427,30,18,407110.041,-0.053,0.992,1.343,0.305,0.610,30,18,407260.040,-0.055,0.993,1.160,0.366,0.549,30,18,407560.038,-0.054,0.994,1.221,0.549,0.549,30,18,407710.039,-0.053,0.994,1.221,0.366,0.549,30,18,407860.040,-0.055,0.993,1.221,0.183,0.488,30,18,408160.042,-0.053,0.993,1.221,0.305,0.488,30,18,408610.040,-0.054,0.993,1.282,0.244,0.671,30,18,408760.041,-0.053,0.995,1.221,0.244,0.610,30,18,408910.040,-0.054,0.994,1.160,0.305,0.427,30,18,409060.040,-0.054,0.994,1.221,0.305,0.549,30,18,409210.039,-0.053,0.993,1.282,0.122,0.488,30,18,409360.039,-0.054,0.994,0.977,0.122,0.305,30,18,409510.040,-0.052,0.993,1.282,0.183,0.610,30,18,409660.040,-0.053,0.992,1.221,0.183,0.549,30,18,409810.039,-0.053,0.993,1.099,0.366,0.488,30,18,409960.040,-0.053,0.994,1.099,0.122,0.488,30,18,410110.041,-0.054,0.995,1.221,0.183,0.549,30,18,410260.042,-0.053,0.992,1.099,0.305,0.549,30,18,410410.040,-0.053,0.993,1.099,0.122,0.366,30,18,410560.040,-0.053,0.993,1.343,0.244,0.549,30,18,410710.038,-0.054,0.994,1.282,0.305,0.549,30,18,410860.039,-0.055,0.993,1.221,0.122,0.549,30,18,411010.039,-0.055,0.992,1.099,0.305,0.366,30,18,411160.041,-0.054,0.994,1.099,0.366,0.427,30,18,411310.041,-0.054,0.993,1.343,0.244,0.427,30,18,411460.041,-0.054,0.994,1.038,0.122,0.488,30,18,411610.039,-0.054,0.993,1.221,0.183,0.488,30,18,411760.040,-0.054,0.993,1.160,0.183,0.549,30,18,411910.039,-0.053,0.994,1.160,0.305,0.427,30,18,412060.041,-0.052,0.994,1.221,0.305,0.427,30,18,412210.040,-0.054,0.995,1.160,0.244,0.610,30,18,412360.040,-0.053,0.992,1.282,0.122,0.488,30,18,412510.040,-0.052,0.993,1.099,0.122,0.366,30,18,412660.040,-0.054,0.994,1.221,0.122,0.610,30,18,412810.039,-0.055,0.994,1.282,0.122,0.549,30,18,412960.039,-0.053,0.994,1.099,0.122,0.610,30,18,413110.041,-0.053,0.995,1.160,0.244,0.488,30,18,413260.040,-0.055,0.994,1.160,0.244,0.549,30,18,413410.039,-0.056,0.997,1.221,0.183,0.305,30,18,413560.039,-0.053,0.994,1.221,0.305,0.488,30,18,413860.040,-0.053,0.993,1.099,0.183,0.366,30,18,414010.039,-0.053,0.993,0.916,0.183,0.549,30,18,414160.039,-0.053,0.994,0.916,0.183,0.366,30,18,414310.039,-0.053,0.994,1.099,0.183,0.549,30,18,414460.039,-0.053,0.995,1.160,0.305,0.488,30,18,414610.040,-0.055,0.993,1.160,0.244,0.244,30,18,414760.040,-0.053,0.993,1.343,0.183,0.610,30,18,414910.040,-0.054,0.992,1.282,0.183,0.549,30,18,415060.040,-0.054,0.993,1.160,0.183,0.244,30,18,415210.040,-0.053,0.994,1.282,0.244,0.610,30,18,415360.041,-0.054,0.992,1.221,0.244,0.610,30,18,415660.039,-0.054,0.994,1.038,0.366,0.305,30,18,415810.039,-0.055,0.994,1.221,0.244,0.488,30,18,415960.039,-0.054,0.995,1.343,0.305,0.488,30,18,416110.040,-0.054,0.994,1.160,0.122,0.305,30,18,416260.040,-0.053,0.994,1.221,0.183,0.549,30,18,416410.041,-0.053,0.994,1.221,0.183,0.549,30,18,416560.040,-0.054,0.994,1.221,0.122,0.549,30,18,416710.040,-0.052,0.993,1.038,0.183,0.427,30,18,416860.039,-0.052,0.994,1.221,0.244,0.671,30,18,417160.040,-0.054,0.993,1.404,0.244,0.671,30,18,417310.042,-0.055,0.993,1.160,0.244,0.610,30,18,417460.040,-0.055,0.994,1.221,0.305,0.549,30,18,417610.040,-0.055,0.996,1.038,0.244,0.183,30,18,417760.040,-0.054,0.995,1.404,0.183,0.549,30,18,417910.040,-0.053,0.994,1.282,0.061,0.488,30,18,418060.039,-0.052,0.993,1.343,0.061,0.549,30,18,418210.039,-0.053,0.993,1.038,0.061,0.305,30,18,418360.041,-0.051,0.996,1.160,0.305,0.427,30,18,418510.040,-0.053,0.995,1.282,0.122,0.488,30,18,418660.039,-0.053,0.994,1.221,0.244,0.427,30,18,418810.038,-0.051,0.994,1.221,0.305,0.427,30,18,418960.039,-0.052,0.993,1.160,0.183,0.488,30,18,419110.041,-0.052,0.994,1.221,0.122,0.488,30,18,419260.041,-0.053,0.994,1.160,0.183,0.305,30,18,419410.040,-0.053,0.992,1.404,0.122,0.549,30,18,419560.042,-0.055,0.993,1.282,0.000,0.549,30,18,419710.040,-0.055,0.993,1.038,0.183,0.427,30,18,419860.040,-0.055,0.992,0.977,0.183,0.305,30,18,420010.041,-0.055,0.994,1.221,0.305,0.488,30,18,420160.041,-0.054,0.994,1.221,0.122,0.610,30,18,420310.040,-0.053,0.993,1.160,0.122,0.427,30,18,420460.039,-0.053,0.993,1.282,0.122,0.488,30,18,420610.040,-0.052,0.995,1.221,0.183,0.671,30,18,420760.041,-0.051,0.996,1.221,0.183,0.671,30,18,420910.039,-0.051,0.994,1.038,0.183,0.366,30,18,421060.041,-0.052,0.994,1.160,0.122,0.610,30,18,421210.040,-0.054,0.993,1.465,0.183,0.488,30,18,421360.040,-0.053,0.992,1.343,0.183,0.671,30,18,421510.041,-0.056,0.992,1.343,0.183,0.671,30,18,421660.041,-0.055,0.995,1.099,0.122,0.549,30,18,421810.042,-0.057,0.997,0.977,0.183,0.427,30,18,421960.040,-0.055,0.990,1.221,0.305,0.488,30,18,422110.041,-0.056,0.996,1.099,0.061,0.610,30,18,422260.039,-0.051,0.993,1.221,0.244,0.549,30,18,422410.040,-0.053,0.987,1.282,0.183,0.305,30,18,422560.039,-0.054,0.992,0.977,0.427,0.549,30,18,422710.039,-0.056,0.991,1.465,0.244,0.427,30,18,422860.040,-0.051,0.994,1.038,0.366,0.488,30,18,423010.041,-0.055,0.991,1.465,0.183,0.549,30,18,423160.041,-0.054,0.993,1.343,0.122,0.488,30,18,423310.040,-0.055,0.996,1.099,0.305,0.427,30,18,423460.040,-0.055,0.993,0.977,0.305,0.305,30,18,423610.039,-0.055,0.994,1.160,0.244,0.549,30,18,423760.041,-0.053,0.993,1.221,0.122,0.488,30,18,423910.040,-0.054,0.993,1.404,0.122,0.427,30,18,424060.039,-0.052,0.993,1.099,0.183,0.732,30,18,424210.039,-0.054,0.994,1.282,0.183,0.671,30,18,424360.039,-0.052,0.995,1.221,0.244,0.427,30,18,424510.039,-0.052,0.993,0.977,0.122,0.244,30,18,424660.039,-0.052,0.994,1.099,0.244,0.488,30,18,424810.040,-0.054,0.995,1.160,0.244,0.366,30,18,424960.040,-0.054,0.995,0.793,0.244,-0.183,30,18,425110.040,-0.055,0.993,0.671,0.366,-0.183,30,18,425260.040,-0.056,0.994,0.793,0.244,0.122,30,18,425560.040,-0.054,0.992,1.160,0.305,0.427,30,18,425710.038,-0.055,0.994,1.282,0.061,0.427,30,18,425860.041,-0.054,0.995,1.221,0.061,0.427,30,18,426010.040,-0.054,0.993,0.916,0.366,0.366,30,18,426160.040,-0.052,0.994,1.282,0.305,0.610,30,18,426310.040,-0.052,0.994,1.343,0.061,0.427,30,18,426460.040,-0.053,0.994,1.282,0.122,0.366,30,18,426610.038,-0.054,0.993,1.282,0.244,0.488,30,18,427060.038,-0.056,0.995,1.343,0.305,0.427,30,18,427210.038,-0.055,0.991,1.099,0.305,0.488,30,18,427360.039,-0.055,0.995,1.404,0.244,0.427,30,18,427510.039,-0.053,0.993,1.038,0.183,0.488,30,18,427660.042,-0.055,0.993,0.854,0.183,0.366,30,18,427810.042,-0.054,0.994,1.282,0.244,0.305,30,18,427960.042,-0.053,0.993,1.099,0.244,0.549,30,18,428110.043,-0.052,0.993,0.916,0.183,0.244,30,18,428260.039,-0.051,0.994,1.221,0.244,0.488,30,18,428410.040,-0.053,0.994,1.160,0.183,0.549,30,18,428560.038,-0.054,0.994,0.916,0.183,0.244,30,18,428710.036,-0.056,0.992,1.282,0.122,0.488,30,18,428860.038,-0.056,0.995,1.221,0.244,0.488,30,18,429160.039,-0.056,0.993,1.099,0.244,0.610,30,18,429310.039,-0.055,0.994,1.038,0.305,0.549,30,18,429460.041,-0.054,0.994,1.282,0.427,0.671,30,18,429610.041,-0.052,0.992,0.977,0.183,0.366,30,18,429760.040,-0.053,0.994,1.038,0.244,0.549,30,18,429910.040,-0.051,0.994,1.282,0.122,0.610,30,18,430060.039,-0.052,0.994,1.343,0.183,0.488,30,18,430210.040,-0.053,0.995,1.221,0.244,0.427,30,18,430360.037,-0.054,0.992,1.221,0.305,0.671,30,18,430660.041,-0.056,0.995,1.404,0.244,0.366,30,18,431110.042,-0.056,0.992,1.404,0.122,0.610,30,18,431260.042,-0.053,0.994,1.038,0.183,0.366,30,18,431410.042,-0.052,0.994,1.221,0.183,0.549,30,18,431560.040,-0.052,0.993,1.282,-0.061,0.610,30,18,431710.039,-0.052,0.993,1.160,0.244,0.488,30,18,431860.038,-0.052,0.993,1.282,0.183,0.549,30,18,432010.037,-0.050,0.993,1.221,0.244,0.488,30,18,432160.036,-0.051,0.994,1.343,0.122,0.427,30,18,432310.039,-0.053,0.991,1.038,0.244,0.305,30,18,432460.039,-0.056,0.994,1.343,0.183,0.671,30,18,432610.039,-0.056,0.993,1.343,0.244,0.366,30,18,432760.042,-0.056,0.994,1.282,0.122,0.488,30,18,432910.043,-0.052,0.994,1.221,0.061,0.366,30,18,433060.042,-0.053,0.993,1.282,0.122,0.549,30,18,433210.042,-0.053,0.993,1.099,0.122,0.305,30,18,433360.042,-0.053,0.993,1.343,0.427,0.305,30,18,433510.040,-0.053,0.994,1.282,0.305,0.366,30,18,433660.040,-0.051,0.994,1.099,0.183,0.488,30,18,433810.036,-0.053,0.993,0.977,0.244,0.427,30,18,433960.039,-0.053,0.993,1.465,0.183,0.549,30,18,434110.040,-0.053,0.994,1.221,0.366,0.488,30,18,434260.041,-0.055,0.993,1.099,0.122,0.427,30,18,434410.041,-0.053,0.993,1.099,0.183,0.488,30,18,434560.042,-0.054,0.991,1.099,0.122,0.610,30,18,434710.043,-0.055,0.990,1.282,0.122,0.488,30,18,434860.042,-0.056,0.995,1.099,0.183,0.366,30,18,435010.042,-0.054,0.995,1.221,0.122,0.488,30,18,435160.040,-0.051,0.993,1.221,0.122,0.671,30,18,435310.039,-0.053,0.993,1.282,0.244,0.488,30,18,435460.038,-0.053,0.994,1.343,0.061,0.549,30,18,435610.038,-0.052,0.994,1.160,0.122,0.549,30,18,435760.038,-0.052,0.994,1.099,0.183,0.427,30,18,435910.038,-0.052,0.993,0.977,0.244,0.244,30,18,436060.039,-0.053,0.993,1.221,0.244,0.427,30,18,436210.040,-0.052,0.991,1.160,0.244,0.671,30,18,436360.041,-0.054,0.993,1.282,0.244,0.549,30,18,436510.041,-0.054,0.994,1.221,0.366,0.671,30,18,436660.041,-0.055,0.993,1.343,0.244,0.488,30,18,436810.041,-0.054,0.993,1.221,0.244,0.549,30,18,436960.040,-0.054,0.992,1.160,-0.061,0.366,30,18,437110.041,-0.056,0.992,1.221,0.183,0.549,30,18,437260.039,-0.054,0.992,1.160,0.244,0.549,30,18,437410.039,-0.053,0.994,0.916,0.244,0.305,30,18,437560.037,-0.051,0.992,1.221,0.183,0.549,30,18,437710.036,-0.051,0.995,1.221,0.122,0.610,30,18,437860.038,-0.052,0.994,1.282,0.183,0.305,30,18,438010.039,-0.054,0.994,1.160,0.183,0.366,30,18,438160.039,-0.054,0.992,1.343,0.122,0.549,30,18,438310.041,-0.054,0.993,1.221,0.122,0.610,30,18,438460.042,-0.057,0.993,1.221,0.244,0.366,30,18,438610.042,-0.056,0.993,1.404,0.122,0.549,30,18,438760.041,-0.055,0.994,1.160,0.183,0.549,30,18,438910.041,-0.054,0.992,1.160,0.305,0.488,30,18,439060.038,-0.052,0.994,1.099,0.183,0.549,30,18,439660.038,-0.050,0.993,1.282,0.122,0.488,30,18,439810.038,-0.050,0.994,1.221,0.122,0.610,30,18,439960.039,-0.052,0.995,1.160,0.183,0.427,30,18,440110.041,-0.055,0.993,1.038,0.366,0.000,30,18,440260.040,-0.054,0.994,1.343,0.244,0.488,30,18,440410.040,-0.055,0.991,1.404,0.244,0.488,30,18,440560.042,-0.054,0.991,1.221,0.183,0.549,30,18,440710.041,-0.054,0.992,1.282,0.061,0.610,30,18,440860.040,-0.055,0.994,1.343,0.122,0.549,30,18,441010.039,-0.053,0.993,1.160,0.488,0.427,30,18,441460.038,-0.052,0.992,1.160,0.427,0.305,30,18,441610.038,-0.052,0.993,1.038,0.488,0.244,30,18,441760.039,-0.052,0.994,1.282,0.305,0.488,30,18,441910.039,-0.052,0.993,1.343,0.183,0.427,30,18,442060.040,-0.052,0.992,1.160,0.244,0.488,30,18,442210.040,-0.052,0.992,1.038,0.427,0.549,30,18,442360.042,-0.055,0.993,1.343,0.244,0.610,30,18,442510.040,-0.056,0.993,1.404,0.122,0.549,30,18,442660.041,-0.056,0.993,1.160,0.244,0.366,30,18,442810.042,-0.054,0.993,1.221,0.244,0.488,30,18,442960.040,-0.054,0.994,1.099,0.183,0.427,30,18,443110.040,-0.055,0.993,1.221,0.183,0.427,30,18,443260.038,-0.053,0.994,1.038,0.244,0.122,30,18,443410.039,-0.052,0.995,1.282,0.366,0.488,30,18,443560.038,-0.052,0.994,1.343,0.244,0.244,30,18,443710.039,-0.052,0.993,1.099,0.244,0.549,30,18,443860.039,-0.052,0.992,1.404,0.305,0.366,30,18,444010.041,-0.053,0.992,1.160,0.244,0.549,30,18,444160.040,-0.054,0.993,0.793,0.427,0.427,30,18,444310.041,-0.053,0.994,1.282,0.183,0.610,30,18,444460.041,-0.053,0.994,1.282,0.244,0.488,30,18,444610.041,-0.054,0.995,1.282,0.427,0.305,30,18,444760.041,-0.055,0.994,1.221,0.305,0.488,30,18,444910.040,-0.054,0.995,0.854,0.244,0.183,30,18,445060.039,-0.053,0.994,0.244,0.061,-0.427,30,18,445210.039,-0.053,0.994,0.549,0.244,0.000,30,18,445360.040,-0.054,0.993,0.854,0.244,0.183,30,18,445510.038,-0.053,0.992,1.282,0.244,0.488,30,18,445660.039,-0.054,0.994,1.099,0.244,0.366,30,18,445810.041,-0.054,0.994,1.221,0.305,0.610,30,18,445960.040,-0.055,0.995,1.404,0.305,0.488,30,18,446110.041,-0.056,0.993,1.221,0.244,0.427,30,18,446260.043,-0.056,0.994,1.282,0.244,0.549,30,18,446410.041,-0.055,0.994,1.282,0.244,0.549,30,18,446560.041,-0.054,0.994,1.221,0.244,0.549,30,18,446710.041,-0.053,0.994,0.977,0.366,0.488,30,18,446860.041,-0.054,0.993,1.343,0.122,0.549,30,18,447010.041,-0.054,0.992,1.404,0.244,0.427,30,18,447160.039,-0.053,0.994,1.343,0.366,0.549,30,18,447310.040,-0.054,0.992,1.160,0.183,0.610,30,18,447460.038,-0.052,0.994,1.282,0.244,0.610,30,18,447610.039,-0.051,0.993,1.160,0.244,0.610,30,18,447760.039,-0.054,0.995,1.038,0.366,0.244,30,18,447910.042,-0.054,0.995,1.221,0.244,0.549,30,18,448060.042,-0.055,0.994,1.099,0.244,0.366,30,18,448210.042,-0.054,0.994,1.282,0.122,0.610,30,18,448360.042,-0.056,0.991,1.099,0.244,0.488,30,18,448510.041,-0.055,0.992,1.343,0.366,0.549,30,18,448660.042,-0.054,0.992,1.221,0.122,0.671,30,18,448810.040,-0.054,0.995,1.221,0.305,0.366,30,18,448960.038,-0.053,0.994,1.099,0.183,0.488,30,18,449110.038,-0.053,0.994,1.343,0.183,0.671,30,18,449260.039,-0.055,0.993,1.160,0.305,0.305,30,18,449410.040,-0.054,0.993,1.282,0.183,0.671,30,18,449560.040,-0.053,0.992,1.221,0.183,0.427,30,18,449710.040,-0.052,0.994,1.282,0.366,0.549,30,18,449860.041,-0.054,0.994,0.916,0.183,0.427,30,18,450010.043,-0.055,0.993,1.404,0.183,0.610,30,18,450160.041,-0.055,0.993,1.221,0.305,0.549,30,18,450310.041,-0.055,0.994,1.221,0.244,0.488,30,18,450460.041,-0.053,0.992,1.343,0.183,0.549,30,18,450610.038,-0.054,0.994,1.282,0.122,0.427,30,18,450760.039,-0.055,0.993,1.221,0.122,0.427,30,18,450910.038,-0.053,0.994,0.977,0.183,0.427,30,18,451060.038,-0.052,0.993,1.160,0.183,0.427,30,18,451210.039,-0.052,0.993,1.282,0.305,0.427,30,18,451360.040,-0.053,0.994,1.221,0.244,0.427,30,18,451510.042,-0.054,0.995,1.282,0.244,0.427,30,18,451660.042,-0.054,0.992,1.343,0.244,0.427,30,18,451810.042,-0.054,0.994,1.221,0.244,0.305,30,18,451960.041,-0.054,0.992,0.916,0.183,0.427,30,18,452110.041,-0.055,0.994,1.282,0.122,0.549,30,18,452260.040,-0.056,0.993,1.038,0.244,0.549,30,18,452410.039,-0.054,0.994,1.221,0.244,0.549,30,18,452560.038,-0.054,0.993,0.977,0.305,0.305,30,18,452710.039,-0.052,0.992,1.221,0.122,0.610,30,18,452860.039,-0.052,0.994,1.343,0.244,0.610,30,18,453010.040,-0.052,0.993,1.160,0.244,0.427,30,18,453160.039,-0.053,0.993,1.099,0.122,0.366,30,18,453310.040,-0.052,0.993,1.343,0.244,0.427,30,18,453460.040,-0.053,0.993,1.160,0.183,0.366,30,18,453610.041,-0.053,0.993,1.282,0.305,0.427,30,18,453760.041,-0.054,0.994,1.221,0.305,0.488,30,18,453910.041,-0.055,0.993,1.221,0.244,0.427,30,18,454060.040,-0.055,0.995,1.038,0.183,0.366,30,18,454210.039,-0.054,0.993,1.160,0.183,0.488,30,18,454360.040,-0.053,0.993,1.160,0.122,0.427,30,18,454510.039,-0.054,0.992,1.038,0.244,0.305,30,18,454660.039,-0.053,0.993,1.099,0.244,0.488,30,18,454810.039,-0.052,0.991,0.977,0.122,0.366,30,18,454960.039,-0.051,0.994,1.099,0.244,0.488,30,18,455110.040,-0.051,0.995,1.282,0.183,0.427,30,18,455260.040,-0.051,0.992,1.282,0.244,0.488,30,18,455410.040,-0.052,0.994,1.343,0.244,0.488,30,18,455560.041,-0.052,0.995,1.038,0.305,0.427,30,18,455710.040,-0.054,0.992,1.282,0.183,0.427,30,18,455860.039,-0.055,0.994,1.282,0.122,0.427,30,18,456010.040,-0.056,0.994,1.343,0.183,0.488,30,18,456160.040,-0.056,0.993,1.099,0.305,0.366,30,18,456310.040,-0.054,0.993,0.916,0.183,0.305,30,18,456760.039,-0.052,0.994,1.160,0.122,0.488,30,18,456910.039,-0.052,0.993,1.099,0.183,0.427,30,18,457060.039,-0.051,0.992,1.282,0.244,0.549,30,18,457210.040,-0.051,0.993,1.160,0.183,0.244,30,18,457360.040,-0.051,0.992,1.404,0.305,0.549,30,18,457510.040,-0.053,0.993,1.221,0.244,0.549,30,18,457660.040,-0.053,0.994,1.221,0.305,0.366,30,18,457810.039,-0.055,0.993,1.343,0.244,0.549,30,18,457960.039,-0.054,0.995,1.221,0.244,0.488,30,18,458110.041,-0.053,0.993,1.221,0.183,0.610,30,18,458260.040,-0.053,0.992,0.977,0.366,0.244,30,18,458410.040,-0.053,0.993,1.587,0.366,0.610,30,18,458560.041,-0.056,0.992,1.221,0.244,0.549,30,18,458710.040,-0.053,0.993,1.099,0.244,0.671,30,18,458860.039,-0.053,0.993,1.404,0.244,0.610,30,18,459010.041,-0.054,0.992,1.526,0.183,0.488,30,18,459160.041,-0.053,0.994,1.343,0.122,0.671,30,18,459310.040,-0.054,0.993,1.160,0.183,0.427,30,18,459460.038,-0.051,0.994,1.282,0.244,0.549,30,18,459610.039,-0.053,0.994,1.282,0.305,0.488,30,18,459760.040,-0.054,0.992,1.343,0.183,0.305,30,18,459910.042,-0.054,0.993,1.221,0.244,0.366,30,18,460060.040,-0.054,0.992,1.465,0.183,0.488,30,18,460210.041,-0.052,0.993,1.099,0.183,0.427,30,18,460360.040,-0.052,0.994,0.916,0.305,0.305,30,18,460510.040,-0.053,0.994,1.160,0.305,0.549,30,18,460660.040,-0.055,0.994,1.282,0.122,0.488,30,18,460810.039,-0.054,0.993,1.038,0.305,0.244,30,18,460960.039,-0.053,0.992,1.343,0.122,0.549,30,18,461110.039,-0.053,0.993,1.282,0.122,0.549,30,18,461260.041,-0.054,0.993,1.038,0.427,0.305,30,18,461410.041,-0.056,0.992,1.282,0.183,0.549,30,18,461560.042,-0.054,0.993,1.160,0.122,0.610,30,18,461710.041,-0.054,0.992,1.099,0.244,0.305,30,18,461860.041,-0.053,0.995,1.221,0.122,0.549,30,18,462010.040,-0.053,0.995,1.160,0.061,0.427,30,18,462160.039,-0.053,0.992,1.282,0.122,0.488,30,18,462310.039,-0.054,0.994,1.038,0.244,0.366,30,18,462460.038,-0.052,0.993,1.282,0.183,0.488,30,18,462610.039,-0.052,0.991,1.282,0.183,0.488,30,18,462760.038,-0.052,0.993,1.282,0.183,0.427,30,18,462910.040,-0.054,0.992,1.404,0.183,0.488,30,18,463060.041,-0.054,0.993,1.343,0.061,0.488,30,18,463210.041,-0.052,0.994,1.099,0.244,0.549,30,18,463360.042,-0.053,0.994,1.038,0.366,0.183,30,18,463510.040,-0.055,0.993,1.221,0.305,0.549,30,18,463660.040,-0.054,0.993,1.282,0.183,0.610,30,18,463960.040,-0.055,0.993,1.221,0.244,0.549,30,18,464110.039,-0.054,0.994,1.343,0.183,0.549,30,18,464260.038,-0.053,0.994,1.282,0.122,0.610,30,18,464410.040,-0.053,0.993,1.282,0.183,0.305,30,18,464560.040,-0.053,0.994,1.282,0.061,0.549,30,18,464710.040,-0.052,0.994,1.343,0.061,0.488,30,18,464860.040,-0.051,0.993,1.282,0.244,0.549,30,18,465010.041,-0.053,0.995,1.282,0.183,0.488,30,18,465160.041,-0.055,0.992,0.793,0.000,-0.122,30,18,465310.042,-0.056,0.994,0.000,-0.061,-0.671,30,18,465460.040,-0.056,0.992,1.099,0.183,0.427,30,18,465610.039,-0.054,0.993,1.221,0.305,0.610,30,18,465760.039,-0.054,0.993,1.282,0.244,0.610,30,18,465910.040,-0.055,0.994,1.343,0.183,0.610,30,18,466060.039,-0.055,0.991,1.221,0.244,0.488,30,18,466210.038,-0.053,0.992,1.221,0.183,0.488,30,18,466360.042,-0.053,0.995,1.404,0.305,0.549,30,18,466960.041,-0.053,0.992,1.160,0.183,0.244,30,18,467110.041,-0.053,0.995,1.343,0.244,0.610,30,18,467260.040,-0.056,0.992,1.343,0.122,0.549,30,18,467560.039,-0.054,0.993,1.099,0.183,0.610,30,18,467860.037,-0.053,0.993,0.854,0.183,0.305,30,18,468010.039,-0.053,0.992,1.282,0.183,0.671,30,18,468160.038,-0.051,0.994,1.160,0.183,0.549,30,18,468310.040,-0.052,0.993,1.038,0.061,0.488,30,18,468460.040,-0.050,0.994,1.099,0.305,0.427,30,18,468610.042,-0.051,0.992,1.221,0.183,0.671,30,18,468760.040,-0.053,0.991,1.282,0.122,0.549,30,18,468910.040,-0.055,0.993,1.282,0.244,0.427,30,18,469060.040,-0.055,0.990,1.343,0.061,0.549,30,18,469210.041,-0.056,0.993,1.343,0.366,0.488,30,18,469360.041,-0.056,0.994,1.282,0.183,0.488,30,18,469510.040,-0.055,0.991,1.160,0.122,0.427,30,18,469660.040,-0.055,0.993,1.160,0.183,0.610,30,18,469810.041,-0.054,0.994,1.160,0.183,0.488,30,18,469960.041,-0.054,0.994,0.977,0.244,0.305,30,18,470110.039,-0.052,0.994,1.282,0.183,0.610,30,18,470260.039,-0.050,0.993,1.343,0.244,0.549,30,18,470410.041,-0.051,0.993,1.160,0.305,0.549,30,18,470560.041,-0.051,0.993,1.099,0.244,0.366,30,18,470710.039,-0.052,0.992,1.282,0.366,0.488,30,18,470860.039,-0.054,0.993,1.343,0.427,0.427,30,18,471160.041,-0.056,0.995,1.404,0.366,0.427,30,18,471310.040,-0.056,0.994,1.343,0.183,0.549,30,18,471460.042,-0.056,0.992,1.221,0.305,0.671,30,18,471610.041,-0.056,0.995,1.160,0.183,0.488,30,18,471760.039,-0.051,0.987,1.099,0.244,0.671,30,18,471910.034,-0.056,1.002,1.465,0.305,0.488,30,18,472060.041,-0.051,0.965,0.732,0.427,0.732,30,18,472210.042,-0.065,0.996,2.075,-0.122,0.183,30,18,472360.040,-0.040,0.998,0.244,0.061,0.793,30,18,472510.042,-0.060,0.986,2.197,0.671,0.610,30,18,472660.039,-0.053,1.003,0.427,0.244,0.793,30,18,472810.041,-0.052,0.986,1.953,0.061,0.549,30,18,472960.039,-0.052,0.993,0.977,0.183,0.732,30,18,473110.038,-0.049,0.996,1.343,0.000,0.610,30,18,473260.037,-0.053,0.988,1.587,0.488,0.488,30,18,473410.039,-0.059,0.998,1.160,0.061,0.610,30,18,473560.042,-0.055,0.990,1.282,0.305,0.549,30,18,473710.042,-0.059,0.991,1.099,0.183,0.305,30,18,473860.042,-0.053,0.991,0.977,0.244,0.671,30,18,474010.041,-0.054,0.993,1.282,0.244,0.671,30,18,474160.043,-0.054,0.993,1.282,0.122,0.610,30,18,474310.041,-0.052,0.995,1.343,0.122,0.488,30,18,474460.038,-0.054,0.992,1.282,0.244,0.366,30,18,474610.036,-0.050,0.996,0.977,0.122,0.549,30,18,474760.038,-0.049,0.993,1.221,0.366,0.305,30,18,474910.037,-0.052,0.993,1.099,0.183,0.610,30,18,475060.038,-0.053,0.994,1.282,0.122,0.366,30,18,475210.040,-0.054,0.993,1.465,0.305,0.488,30,18,475360.042,-0.054,0.993,1.038,0.122,0.488,30,18,475510.042,-0.056,0.993,1.282,0.366,0.488,30,18,475660.042,-0.054,0.994,1.282,0.183,0.549,30,18,475810.041,-0.055,0.991,1.099,0.305,0.305,30,18,475960.040,-0.056,0.993,1.343,0.183,0.366,30,18,476110.039,-0.053,0.994,1.160,0.305,0.610,30,18,476260.039,-0.054,0.993,1.282,0.305,0.671,30,18,476410.037,-0.053,0.994,1.099,0.183,0.366,30,18,476560.037,-0.052,0.994,1.160,0.122,0.610,30,18,476710.038,-0.053,0.993,1.282,0.305,0.427,30,18,476860.039,-0.052,0.995,1.160,0.305,0.488,30,18,477010.041,-0.052,0.993,1.160,0.183,0.488,30,18,477160.039,-0.052,0.991,1.343,0.122,0.488,30,18,477310.040,-0.052,0.991,1.526,0.305,0.610,30,18,477460.042,-0.054,0.993,1.221,0.305,0.488,30,18,477610.043,-0.056,0.991,1.221,0.122,0.549,30,18,477760.041,-0.056,0.994,1.404,0.183,0.488,30,18,477910.040,-0.054,0.994,1.160,0.244,0.671,30,18,478060.041,-0.055,0.995,1.282,0.183,0.610,30,18,478210.040,-0.053,0.993,1.404,0.305,0.488,30,18,478360.039,-0.054,0.994,1.282,0.183,0.549,30,18,478510.038,-0.052,0.992,1.343,0.183,0.549,30,18,478660.040,-0.052,0.994,1.404,0.183,0.549,30,18,478810.039,-0.052,0.993,1.465,0.183,0.488,30,18,478960.039,-0.052,0.994,1.282,0.244,0.488,30,18,479110.039,-0.053,0.992,1.404,0.305,0.671,30,18,479260.041,-0.053,0.992,1.038,0.305,0.427,30,18,479410.040,-0.054,0.994,1.038,0.427,0.427,30,18,479560.041,-0.056,0.994,1.343,0.122,0.610,30,18,479710.039,-0.055,0.994,1.038,0.366,0.610,30,18,479860.040,-0.055,0.993,1.221,0.183,0.366,30,18,480010.040,-0.054,0.991,0.977,0.244,0.427,30,18,480160.040,-0.052,0.994,1.404,0.244,0.610,30,18,480310.039,-0.054,0.990,1.404,0.122,0.671,30,18,480460.040,-0.052,0.991,1.038,0.183,0.366,30,18,480610.039,-0.053,0.994,1.343,0.244,0.671,30,18,480760.041,-0.054,0.993,1.221,0.305,0.671,30,18,480910.037,-0.052,0.992,1.221,0.366,0.549,30,18,481060.039,-0.052,0.993,1.221,0.244,0.610,30,18,481210.040,-0.052,0.993,1.404,0.183,0.671,30,18,481360.040,-0.054,0.993,1.343,0.183,0.610,30,18,481510.041,-0.054,0.993,1.343,0.244,0.610,30,18,481810.040,-0.053,0.992,1.282,0.183,0.427,30,18,481960.040,-0.055,0.992,1.343,0.244,0.671,30,18,482110.040,-0.052,0.991,1.343,0.183,0.671,30,18,482260.040,-0.052,0.993,1.404,0.305,0.610,30,18,482410.039,-0.053,0.995,1.099,0.244,0.427,30,18,482560.039,-0.052,0.994,1.282,0.305,0.610,30,18,482710.040,-0.054,0.993,1.282,0.305,0.488,30,18,482860.039,-0.053,0.992,1.465,0.122,0.732,30,18,483010.041,-0.054,0.992,1.160,0.244,0.488,30,18,483160.039,-0.054,0.992,1.221,0.244,0.549,30,18,483310.040,-0.052,0.993,1.465,0.183,0.671,30,18,483460.041,-0.055,0.992,1.343,0.061,0.732,30,18,483760.040,-0.056,0.994,1.038,0.122,0.732,30,18,483910.040,-0.053,0.992,1.221,0.244,0.610,30,18,484060.039,-0.053,0.992,1.038,0.183,0.305,30,18,484210.040,-0.053,0.992,1.099,0.183,0.488,30,18,484360.041,-0.053,0.992,1.282,0.183,0.549,30,18,484510.041,-0.053,0.993,1.282,0.183,0.488,30,18,484660.042,-0.054,0.994,1.099,0.366,0.305,30,18,484810.038,-0.052,0.993,1.343,0.183,0.549,30,18,484960.039,-0.053,0.994,1.343,0.122,0.549,30,18,485110.041,-0.054,0.993,1.099,0.244,0.427,30,18,485260.039,-0.052,0.993,0.732,0.366,0.244,30,18,485410.039,-0.053,0.992,0.793,0.305,0.244,30,18,485560.038,-0.053,0.995,1.160,0.183,0.305,30,18,485710.040,-0.054,0.994,1.099,0.122,0.366,30,18,485860.040,-0.055,0.993,1.221,0.000,0.549,30,18,486010.042,-0.056,0.992,1.343,0.244,0.427,30,18,486160.042,-0.055,0.993,1.343,0.122,0.549,30,18,486310.041,-0.055,0.990,1.282,0.244,0.488,30,18,486460.041,-0.053,0.992,1.221,0.122,0.671,30,18,486610.039,-0.053,0.993,1.221,0.305,0.671,30,18,486760.039,-0.054,0.993,1.160,0.183,0.366,30,18,486910.039,-0.053,0.994,1.282,0.122,0.671,30,18,487060.040,-0.052,0.994,1.099,0.244,0.671,30,18,487210.039,-0.053,0.994,1.282,0.305,0.549,30,18,487360.039,-0.053,0.994,1.160,0.122,0.427,30,18,487510.041,-0.054,0.993,1.221,0.305,0.610,30,18,487660.040,-0.054,0.995,0.916,0.305,0.488,30,18,487810.041,-0.053,0.992,1.221,0.244,0.427,30,18,487960.040,-0.052,0.994,1.099,0.122,0.671,30,18,488110.040,-0.054,0.992,1.099,0.244,0.305,30,18,488260.041,-0.053,0.992,0.977,0.244,0.122,30,18,488410.040,-0.054,0.994,1.160,0.244,0.488,30,18,488560.040,-0.055,0.993,1.221,0.366,0.549,30,18,488710.039,-0.054,0.993,1.038,0.183,0.366,30,18,488860.039,-0.054,0.992,1.221,0.244,0.488,30,18,489160.038,-0.055,0.993,1.282,0.305,0.610,30,18,489310.039,-0.053,0.995,1.099,0.366,0.488,30,18,489460.039,-0.053,0.992,1.343,0.183,0.427,30,18,489610.040,-0.054,0.994,1.343,0.366,0.488,30,18,489760.040,-0.055,0.993,1.221,0.244,0.305,30,18,489910.040,-0.055,0.993,1.282,0.244,0.427,30,18,490060.039,-0.052,0.993,1.282,0.122,0.305,30,18,490210.041,-0.052,0.993,1.221,0.122,0.366,30,18,490510.040,-0.055,0.993,1.404,0.122,0.671,30,18,490660.040,-0.053,0.991,1.282,0.244,0.549,30,18,490810.039,-0.054,0.995,1.282,0.244,0.427,30,18,490960.039,-0.054,0.994,1.099,0.305,0.488,30,18,491110.039,-0.054,0.993,1.160,0.122,0.427,30,18,491260.040,-0.054,0.993,1.221,0.122,0.366,30,18,491410.041,-0.053,0.992,1.099,0.244,0.488,30,18,491560.041,-0.052,0.992,1.099,0.183,0.549,30,18,491710.041,-0.052,0.994,1.160,0.122,0.488,30,18,491860.042,-0.052,0.993,1.099,0.305,0.244,30,18,492010.042,-0.054,0.994,1.282,0.244,0.549,30,18,492160.039,-0.053,0.992,1.221,0.244,0.671,30,18,492310.038,-0.053,0.994,1.160,0.305,0.549,30,18,492610.038,-0.054,0.992,1.221,0.305,0.549,30,18,492760.039,-0.055,0.994,1.221,0.305,0.366,30,18,492910.040,-0.055,0.993,0.977,0.244,0.183,30,18,493060.039,-0.055,0.993,1.160,0.183,0.610,30,18,493210.040,-0.053,0.994,1.343,0.366,0.427,30,18,493370.041,-0.053,0.993,0.916,0.244,0.183,30,18,493510.040,-0.052,0.993,1.038,0.366,0.366,30,18,493660.041,-0.053,0.994,1.343,0.244,0.549,30,18,493810.040,-0.053,0.994,1.160,0.305,0.549,30,18,493960.039,-0.052,0.994,1.221,0.366,0.488,30,18,494410.038,-0.054,0.994,1.160,0.244,0.366,30,18,494560.038,-0.053,0.992,0.977,0.305,0.427,30,18,494710.039,-0.052,0.992,1.343,0.244,0.427,30,18,494860.039,-0.053,0.993,1.343,0.305,0.610,30,18,495310.040,-0.053,0.992,1.221,0.244,0.427,30,18,495460.040,-0.051,0.992,0.854,0.244,0.366,30,18,495620.041,-0.053,0.992,1.404,0.244,0.488,30,18,495760.040,-0.056,0.993,1.160,0.244,0.549,30,18,495910.037,-0.053,0.993,1.160,0.183,0.488,30,18,496060.040,-0.053,0.993,1.282,0.244,0.427,30,18,496360.041,-0.054,0.990,1.282,0.183,0.549,30,18,496520.040,-0.054,0.993,1.099,0.305,0.488,30,18,496660.040,-0.054,0.993,1.221,0.244,0.671,30,18,496810.040,-0.052,0.994,1.282,0.244,0.610,30,18,496960.038,-0.052,0.994,1.282,0.122,0.549,30,18,497110.040,-0.052,0.993,1.099,0.183,0.427,30,18,497260.039,-0.053,0.993,1.282,0.244,0.671,30,18,497420.039,-0.052,0.993,1.160,0.183,0.488,30,18,497560.038,-0.053,0.992,0.977,0.183,0.305,30,18,497710.039,-0.053,0.994,1.282,0.305,0.366,30,18,497860.039,-0.053,0.993,1.221,0.427,0.427,30,18,498010.039,-0.053,0.993,1.160,0.305,0.305,30,18,498160.041,-0.054,0.992,1.282,0.305,0.671,30,18,498320.040,-0.053,0.993,1.282,0.244,0.671,30,18,498460.041,-0.055,0.992,1.221,0.366,0.549,30,18,498610.040,-0.053,0.992,1.160,0.183,0.427,30,18,498770.041,-0.054,0.993,1.282,0.244,0.549,30,18,498910.040,-0.055,0.995,1.221,0.122,0.427,30,18,499060.040,-0.054,0.994,0.977,0.427,0.305,30,18,499210.041,-0.054,0.993,1.038,0.305,0.366,30,18,499360.038,-0.053,0.992,1.038,0.183,0.549,30,18,499510.038,-0.052,0.993,1.282,0.122,0.610,30,18,499660.038,-0.052,0.991,1.099,0.366,0.183,30,18,499810.040,-0.053,0.993,1.282,0.244,0.427,30,18,499960.040,-0.053,0.994,1.343,0.183,0.427,30,18,500110.041,-0.053,0.992,1.221,0.122,0.427,30,18,500260.042,-0.054,0.992,1.343,0.183,0.610,30,18,500410.040,-0.054,0.992,1.343,0.244,0.610,30,18,500560.039,-0.053,0.992,1.343,0.244,0.549,30,18,500710.039,-0.053,0.993,1.099,0.427,0.244,30,18,500860.039,-0.053,0.993,1.282,0.122,0.488,30,18,501010.039,-0.053,0.992,1.282,0.244,0.488,30,18,501160.041,-0.053,0.993,1.160,0.183,0.671,30,18,501310.040,-0.053,0.991,1.160,0.244,0.610,30,18,501460.040,-0.053,0.992,1.099,0.305,0.549,30,18,501610.040,-0.052,0.994,1.221,0.305,0.183,30,18,501760.042,-0.053,0.993,1.343,0.183,0.427,30,18,501910.040,-0.052,0.992,1.343,0.305,0.549,30,18,502060.041,-0.052,0.993,1.343,0.183,0.549,30,18,502210.038,-0.053,0.992,1.221,0.366,0.488,30,18,502360.039,-0.054,0.992,1.221,0.183,0.549,30,18,502660.040,-0.054,0.993,1.160,0.244,0.549,30,18,503110.041,-0.053,0.991,1.282,0.244,0.610,30,18,503260.041,-0.054,0.992,1.282,0.244,0.427,30,18,503410.042,-0.055,0.994,1.282,0.244,0.549,30,18,503560.040,-0.054,0.993,1.282,0.305,0.488,30,18,503710.040,-0.053,0.990,1.282,0.366,0.610,30,18,503860.040,-0.053,0.993,0.916,0.366,0.427,30,18,504010.038,-0.051,0.994,1.343,0.183,0.671,30,18,504160.038,-0.051,0.993,1.465,0.549,0.610,30,18,504310.037,-0.053,0.995,1.404,0.488,0.549,30,18,504460.039,-0.054,0.990,1.343,0.305,0.549,30,18,504620.041,-0.054,0.993,1.526,0.244,0.488,30,18,504760.040,-0.053,0.996,0.977,0.366,0.122,30,18,504910.042,-0.055,0.993,1.465,0.122,0.671,30,18,505070.042,-0.054,0.996,0.671,0.244,0.061,30,18,505210.042,-0.054,0.992,0.366,0.061,-0.183,30,18,505360.041,-0.053,0.993,0.671,0.305,0.366,30,18,505520.039,-0.054,0.991,1.038,0.366,0.305,30,18,505660.037,-0.055,0.991,1.404,0.305,0.610,30,18,505810.038,-0.056,1.001,1.099,0.305,0.549,30,18,505960.037,-0.052,0.993,1.526,0.366,0.610,30,18,506110.036,-0.055,0.992,1.099,0.183,0.549,30,18,506260.038,-0.047,0.996,1.038,0.366,0.610,30,18,506410.041,-0.052,0.990,1.526,0.427,0.488,30,18,506560.042,-0.054,0.995,1.160,0.183,0.610,30,18,506710.043,-0.053,0.992,1.587,0.366,0.427,30,18,506860.045,-0.053,0.993,1.099,0.305,0.610,30,18,507010.044,-0.051,0.993,1.221,0.122,0.610,30,18,507160.041,-0.053,0.993,1.526,0.305,0.610,30,18,507310.038,-0.055,0.991,1.282,0.244,0.427,30,18,507460.036,-0.056,0.993,1.160,0.366,0.488,30,18,507610.034,-0.053,0.991,1.282,0.305,0.610,30,18,507770.035,-0.052,0.994,1.160,0.183,0.610,30,18,507910.035,-0.052,0.994,1.465,0.244,0.427,30,18,508060.040,-0.053,0.992,1.343,0.366,0.549,30,18,508360.037,-0.055,0.992,1.282,0.488,0.549,30,18,509260.033,-0.055,0.993,1.282,0.244,0.671,30,18,509410.033,-0.054,0.993,1.282,0.305,0.671,30,18,509570.034,-0.054,0.994,1.221,0.244,0.427,30,18,509710.038,-0.053,0.992,1.038,0.183,0.610,30,18,509860.042,-0.052,0.991,1.282,0.183,0.671,30,18,510010.045,-0.052,0.992,1.160,0.427,0.549,30,18,510160.046,-0.052,0.993,1.343,0.366,0.732,30,18,510310.046,-0.053,0.995,1.282,0.244,0.610,30,18,510460.043,-0.054,0.992,1.099,0.305,0.488,30,18,510610.042,-0.054,0.991,1.221,0.122,0.671,30,18,510760.035,-0.051,0.986,1.465,0.427,0.671,30,18,510920.038,-0.063,1.003,0.977,-0.122,0.732,30,18,511060.033,-0.046,0.980,0.671,0.549,0.427,30,18,511210.034,-0.058,0.976,1.831,0.122,0.427,30,18,511360.040,-0.056,0.979,1.709,0.427,0.183,30,18,511660.044,-0.051,1.001,0.854,0.000,0.732,30,18,511810.044,-0.048,0.995,1.831,0.549,0.549,30,18,511960.046,-0.060,0.989,0.977,0.305,0.671,30,18,512110.044,-0.052,0.996,1.404,0.122,0.671,30,18,512270.037,-0.056,0.989,1.404,0.366,0.488,30,18,512410.035,-0.053,0.996,1.404,0.305,0.732,30,18,512560.034,-0.057,0.990,1.160,0.366,0.305,30,18,512720.034,-0.057,0.994,1.648,0.305,0.549,30,18,512860.036,-0.053,0.993,0.977,0.244,0.549,30,18,513010.038,-0.053,0.993,1.282,0.366,0.427,30,18,513170.042,-0.049,0.991,1.099,0.122,0.366,30,18,513310.045,-0.049,0.992,1.282,0.061,0.488,30,18,513460.045,-0.052,0.991,1.282,0.488,0.610,30,18,513610.044,-0.053,0.994,1.465,0.305,0.366,30,18,513760.043,-0.053,0.992,1.221,0.305,0.549,30,18,513910.040,-0.055,0.995,1.404,0.366,0.549,30,18,514070.039,-0.057,0.992,1.465,0.183,0.427,30,18,514210.037,-0.059,0.992,1.343,0.183,0.732,30,18,514360.038,-0.057,0.995,1.282,0.183,0.610,30,18,514510.037,-0.056,0.993,1.221,0.305,0.732,30,18,514660.037,-0.056,0.996,1.221,0.244,0.427,30,18,514810.039,-0.054,0.994,1.282,0.122,0.610,30,18,514970.043,-0.052,0.992,1.160,0.183,0.488,30,18,515110.043,-0.051,0.993,1.282,0.183,0.488,30,18,515260.043,-0.049,0.992,1.282,0.122,0.671,30,18,515410.042,-0.050,0.994,1.343,0.366,0.671,30,18,515560.041,-0.052,0.994,1.282,0.122,0.549,30,18,515710.040,-0.054,0.991,1.343,0.305,0.305,30,18,515870.039,-0.053,0.992,1.221,0.366,0.488,30,18,516010.038,-0.052,0.992,1.160,0.000,0.610,30,18,516160.037,-0.053,0.993,1.160,0.305,0.305,30,18,516310.037,-0.054,0.996,1.282,0.183,0.488,30,18,516460.038,-0.053,0.993,1.160,0.427,0.488,30,18,516610.040,-0.054,0.993,1.038,0.183,0.305,30,18,516770.041,-0.053,0.992,1.160,0.183,0.427,30,18,516910.041,-0.054,0.994,1.282,0.305,0.488,30,18,517060.042,-0.056,0.992,1.343,0.244,0.610,30,18,517220.043,-0.057,0.992,1.221,0.244,0.549,30,18,517360.042,-0.055,0.993,1.465,0.122,0.671,30,18,517510.039,-0.055,0.993,1.160,0.244,0.610,30,18,517660.040,-0.054,0.993,0.977,0.000,0.366,30,18,517810.040,-0.052,0.993,1.221,0.244,0.549,30,18,517960.039,-0.052,0.993,1.282,0.305,0.793,30,18,518260.039,-0.051,0.993,1.099,0.305,0.427,30,18,518410.040,-0.052,0.993,1.282,0.244,0.610,30,18,518710.041,-0.056,0.991,1.404,0.366,0.427,30,18,518860.042,-0.056,0.991,1.160,0.244,0.305,30,18,519020.042,-0.056,0.993,1.282,0.244,0.732,30,18,519160.039,-0.056,0.993,1.465,0.244,0.610,30,18,519310.040,-0.055,0.994,1.404,0.183,0.610,30,18,519470.039,-0.053,0.993,1.221,0.183,0.610,30,18,519760.039,-0.052,0.993,0.977,0.244,0.427,30,18,519920.037,-0.050,0.992,1.282,0.183,0.427,30,18,520060.038,-0.049,0.992,1.343,0.244,0.549,30,18,520210.039,-0.051,0.992,1.465,0.122,0.610,30,18,520370.041,-0.054,0.993,1.343,0.244,0.427,30,18,520510.041,-0.057,0.991,1.343,0.183,0.488,30,18,520660.042,-0.057,0.993,1.465,0.305,0.488,30,18,520820.043,-0.058,0.993,1.221,0.427,0.427,30,18,520960.043,-0.058,0.992,1.404,0.183,0.671,30,18,521110.042,-0.055,0.991,1.343,0.244,0.854,30,18,521270.040,-0.053,0.990,1.221,0.366,0.610,30,18,521410.041,-0.052,0.994,1.038,0.305,0.488,30,18,521560.038,-0.049,0.994,1.282,0.366,0.610,30,18,521720.039,-0.049,0.991,1.282,0.305,0.488,30,18,521860.038,-0.049,0.992,1.343,0.305,0.549,30,18,522010.038,-0.049,0.992,1.160,0.183,0.305,30,18,522170.039,-0.050,0.994,1.221,0.366,0.549,30,18,522310.040,-0.051,0.994,1.465,0.305,0.549,30,18,522460.039,-0.053,0.993,1.343,0.183,0.488,30,18,522620.041,-0.056,0.992,1.404,0.305,0.549,30,18,522760.040,-0.057,0.992,1.404,0.366,0.671,30,18,522910.041,-0.058,0.992,1.404,0.427,0.549,30,18,523070.039,-0.056,0.992,1.343,0.305,0.427,30,18,523210.040,-0.054,0.993,1.282,0.183,0.610,30,18,523360.041,-0.054,0.992,1.282,0.305,0.610,30,18,523520.039,-0.051,0.991,1.038,0.305,0.732,30,18,523660.040,-0.049,0.993,1.099,0.122,0.671,30,18,523810.040,-0.049,0.992,1.282,0.305,0.610,30,18,523970.039,-0.049,0.995,1.160,0.427,0.488,30,18,524110.040,-0.053,0.993,1.465,0.305,0.549,30,18,524260.042,-0.056,0.993,1.648,0.305,0.488,30,18,524420.042,-0.057,0.992,1.465,0.305,0.610,30,18,524560.042,-0.060,0.992,1.160,0.305,0.549,30,18,524710.042,-0.058,0.992,1.282,0.183,0.671,30,18,524870.040,-0.058,0.993,1.343,0.305,0.671,30,18,525010.040,-0.058,0.993,1.038,0.183,0.427,30,18,525160.038,-0.055,0.994,1.099,0.488,0.610,30,18,525320.038,-0.050,0.994,0.244,0.000,-0.488,30,18,525460.037,-0.050,0.994,0.061,0.000,-0.671,30,18,525610.039,-0.049,0.993,0.671,0.366,0.061,30,18,525760.041,-0.049,0.993,1.404,0.305,0.610,30,18,525910.041,-0.049,0.994,1.343,0.305,0.671,30,18,526060.041,-0.051,0.993,1.221,0.183,0.488,30,18,526210.041,-0.054,0.993,1.404,0.061,0.610,30,18,526360.041,-0.055,0.993,1.343,0.244,0.488,30,18,526510.041,-0.058,0.993,1.343,0.183,0.549,30,18,526670.041,-0.058,0.994,1.160,0.183,0.305,30,18,526810.041,-0.059,0.991,1.160,0.366,0.549,30,18,526960.040,-0.056,0.992,1.282,0.244,0.610,30,18,527120.037,-0.054,0.993,1.099,0.305,0.488,30,18,527260.038,-0.052,0.991,1.160,0.244,0.610,30,18,527410.039,-0.053,0.991,1.221,0.244,0.610,30,18,527570.041,-0.051,0.994,1.160,0.183,0.549,30,18,527710.039,-0.050,0.994,0.854,0.061,0.366,30,18,527860.039,-0.050,0.993,1.221,0.305,0.549,30,18,528020.041,-0.050,0.993,1.404,0.244,0.488,30,18,528160.040,-0.052,0.993,1.099,0.305,0.610,30,18,528310.040,-0.053,0.992,1.404,0.366,0.427,30,18,528470.039,-0.055,0.993,1.404,0.244,0.488,30,18,528610.040,-0.056,0.993,1.099,0.122,0.488,30,18,528760.039,-0.058,0.993,1.221,0.244,0.610,30,18,528920.040,-0.056,0.992,1.160,0.366,0.488,30,18,529060.041,-0.056,0.993,1.038,0.488,0.610,30,18,529210.041,-0.053,0.994,1.099,0.183,0.366,30,18,529370.040,-0.052,0.992,1.221,0.244,0.488,30,18,529510.041,-0.052,0.993,1.221,0.061,0.610,30,18,529660.039,-0.050,0.992,1.160,0.183,0.427,30,18,529820.038,-0.050,0.991,1.282,0.183,0.610,30,18,529960.039,-0.055,0.993,1.343,0.183,0.671,30,18,530110.040,-0.056,0.994,1.526,0.305,0.610,30,18,530260.040,-0.058,0.994,1.099,0.244,0.305,30,18,530410.041,-0.058,0.994,1.343,0.427,0.427,30,18,530560.040,-0.057,0.991,1.282,0.305,0.610,30,18,530720.039,-0.056,0.993,1.282,0.366,0.488,30,18,530860.040,-0.054,0.991,1.038,0.183,0.488,30,18,531010.039,-0.051,0.993,1.221,0.305,0.488,30,18,531170.039,-0.052,0.994,1.099,0.122,0.427,30,18,531310.039,-0.050,0.991,1.343,0.244,0.610,30,18,531460.038,-0.047,0.992,1.282,0.244,0.549,30,18,531620.038,-0.048,0.992,1.282,0.244,0.610,30,18,531760.039,-0.048,0.993,1.099,0.366,0.427,30,18,531910.039,-0.052,0.993,1.404,0.366,0.549,30,18,532070.041,-0.053,0.993,1.343,0.305,0.549,30,18,532210.042,-0.059,0.992,1.160,0.122,0.671,30,18,532810.042,-0.058,0.991,1.038,0.183,0.244,30,18,532970.040,-0.052,0.992,1.160,0.122,0.610,30,18,533110.039,-0.051,0.992,1.160,0.183,0.488,30,18,533260.039,-0.050,0.993,1.343,0.244,0.549,30,18,533420.039,-0.048,0.994,1.099,0.183,0.488,30,18,533560.037,-0.050,0.993,1.343,0.366,0.671,30,18,533710.039,-0.051,0.993,1.221,0.122,0.610,30,18,533870.039,-0.052,0.993,1.160,0.183,0.427,30,18,534010.040,-0.054,0.994,1.343,0.305,0.549,30,18,534160.042,-0.054,0.992,1.282,0.244,0.366,30,18,534310.041,-0.056,0.992,1.221,0.305,0.488,30,18,534460.042,-0.057,0.991,1.221,0.244,0.305,30,18,534610.042,-0.057,0.992,1.404,0.366,0.488,30,18,534770.041,-0.057,0.992,1.221,0.244,0.427,30,18,534910.041,-0.055,0.992,1.221,0.183,0.549,30,18,535060.037,-0.054,0.992,1.343,0.244,0.610,30,18,535220.038,-0.053,0.991,1.404,0.244,0.671,30,18,535360.037,-0.053,0.993,0.977,0.427,0.366,30,18,535510.038,-0.052,0.993,1.282,0.244,0.671,30,18,535660.040,-0.051,0.992,1.282,0.183,0.671,30,18,535810.040,-0.051,0.994,1.404,0.244,0.610,30,18,535960.043,-0.052,0.992,1.282,0.244,0.488,30,18,536120.041,-0.052,0.994,1.282,0.183,0.427,30,18,536260.042,-0.054,0.992,1.160,0.366,0.366,30,18,536410.040,-0.053,0.992,1.221,0.244,0.366,30,18,536570.039,-0.056,0.993,1.343,0.244,0.549,30,18,536710.039,-0.055,0.992,1.343,0.305,0.488,30,18,536860.039,-0.055,0.992,1.160,0.427,0.549,30,18,537020.039,-0.054,0.993,1.160,0.244,0.244,30,18,537160.039,-0.052,0.992,1.282,0.427,0.610,30,18,537310.040,-0.052,0.991,1.160,0.061,0.366,30,18,537470.041,-0.052,0.993,1.282,0.244,0.732,30,18,537610.042,-0.052,0.992,1.343,0.244,0.488,30,18,537760.042,-0.052,0.991,1.343,0.122,0.488,30,18,537920.041,-0.053,0.991,1.099,0.183,0.305,30,18,538060.040,-0.055,0.991,1.221,0.305,0.488,30,18,538210.039,-0.056,0.992,1.404,0.305,0.427,30,18,538370.038,-0.057,0.992,1.099,0.244,0.549,30,18,538660.037,-0.053,0.994,1.282,0.305,0.549,30,18,538820.039,-0.053,0.994,1.221,0.305,0.549,30,18,538960.039,-0.053,0.990,1.221,0.122,0.427,30,18,539110.041,-0.053,0.992,1.160,0.183,0.732,30,18,539270.042,-0.052,0.992,1.160,0.000,0.671,30,18,539410.043,-0.053,0.994,1.282,0.122,0.366,30,18,539560.042,-0.053,0.993,1.099,0.366,0.366,30,18,539720.042,-0.055,0.994,1.282,0.244,0.671,30,18,539860.041,-0.056,0.993,1.404,0.305,0.549,30,18,540010.040,-0.056,0.993,1.404,0.305,0.549,30,18,540170.037,-0.057,0.994,1.221,0.305,0.549,30,18,540310.037,-0.056,0.990,1.282,0.244,0.488,30,18,540460.036,-0.054,0.992,1.282,0.122,0.549,30,18,540620.038,-0.053,0.992,1.343,0.183,0.610,30,18,540760.038,-0.052,0.994,1.404,0.061,0.732,30,18,540910.041,-0.053,0.993,1.343,0.122,0.488,30,18,541070.041,-0.050,0.993,1.160,0.366,0.366,30,18,541210.041,-0.052,0.993,1.099,0.244,0.549,30,18,541360.041,-0.053,0.993,1.343,0.183,0.549,30,18,541510.041,-0.053,0.993,1.343,0.488,0.366,30,18,541660.041,-0.054,0.992,1.343,0.244,0.610,30,18,541810.039,-0.056,0.990,1.343,0.183,0.549,30,18,541970.041,-0.055,0.991,1.099,0.305,0.305,30,18,542110.041,-0.056,0.994,1.343,0.305,0.549,30,18,542260.041,-0.055,0.993,1.160,0.305,0.610,30,18,542420.040,-0.054,0.994,1.160,0.183,0.549,30,18,542560.040,-0.053,0.992,0.977,0.305,0.305,30,18,542710.041,-0.053,0.993,1.282,0.366,0.488,30,18,542870.040,-0.052,0.993,1.221,0.244,0.488,30,18,543010.041,-0.051,0.996,0.916,0.366,0.305,30,18,543160.040,-0.052,0.993,1.282,0.244,0.610,30,18,543320.040,-0.053,0.992,1.282,0.305,0.427,30,18,543460.039,-0.052,0.993,1.221,0.305,0.488,30,18,543610.040,-0.053,0.994,0.977,0.366,0.244,30,18,543760.040,-0.054,0.993,1.221,0.305,0.488,30,18,543910.040,-0.054,0.993,1.282,0.183,0.549,30,18,544060.039,-0.056,0.993,1.282,0.244,0.488,30,18,544220.041,-0.057,0.994,1.099,0.244,0.366,30,18,544360.042,-0.056,0.994,1.221,0.061,0.549,30,18,544510.042,-0.055,0.992,1.160,0.061,0.488,30,18,544660.042,-0.053,0.991,1.343,0.061,0.427,30,18,544810.039,-0.053,0.993,1.099,0.244,0.488,30,18,544960.038,-0.051,0.991,1.160,0.183,0.549,30,18,545120.039,-0.050,0.993,1.221,0.183,0.610,30,18,545260.039,-0.051,0.995,0.610,0.122,-0.122,30,18,545410.040,-0.053,0.994,0.183,0.000,-0.488,30,18,545560.040,-0.055,0.993,0.183,0.000,-0.610,30,18,545710.040,-0.056,0.994,0.916,0.305,0.122,30,18,545860.041,-0.055,0.994,1.343,0.244,0.732,30,18,546020.042,-0.055,0.993,1.404,0.427,0.610,30,18,546160.040,-0.055,0.994,1.282,0.122,0.549,30,18,546310.042,-0.053,0.991,1.221,0.122,0.671,30,18,546470.041,-0.054,0.993,1.282,0.061,0.549,30,18,546610.041,-0.053,0.995,1.282,0.183,0.549,30,18,546760.040,-0.053,0.995,1.160,0.183,0.427,30,18,546910.040,-0.054,0.994,1.343,0.366,0.488,30,18,547060.038,-0.054,0.993,1.343,0.183,0.610,30,18,547210.037,-0.052,0.993,1.160,0.244,0.732,30,18,547370.037,-0.051,0.993,1.160,0.183,0.549,30,18,547510.037,-0.051,0.994,1.221,0.366,0.610,30,18,547660.039,-0.052,0.994,1.343,0.183,0.671,30,18,547810.041,-0.054,0.993,1.465,0.000,0.549,30,18,548110.042,-0.055,0.993,1.404,0.183,0.549,30,18,548270.044,-0.056,0.993,1.160,0.366,0.549,30,18,548410.043,-0.056,0.994,1.282,0.366,0.671,30,18,548560.041,-0.054,0.992,1.160,0.244,0.671,30,18,548710.039,-0.052,0.993,1.221,0.427,0.549,30,18,548860.040,-0.051,0.993,1.099,0.366,0.427,30,18,549010.038,-0.052,0.994,1.343,0.244,0.305,30,18,549160.038,-0.053,0.994,1.282,0.244,0.427,30,18,549310.038,-0.053,0.993,1.160,0.244,0.488,30,18,549460.039,-0.055,0.991,1.465,0.244,0.671,30,18,549620.039,-0.056,0.993,1.343,0.244,0.549,30,18,549760.039,-0.055,0.993,1.282,0.488,0.549,30,18,549910.039,-0.053,0.995,1.038,0.244,0.488,30,18,550060.039,-0.052,0.994,1.221,0.183,0.488,30,18,550210.040,-0.052,0.993,1.282,0.122,0.488,30,18,550360.040,-0.052,0.992,1.221,0.305,0.427,30,18,550520.041,-0.053,0.994,1.221,0.305,0.610,30,18,550660.041,-0.053,0.993,1.282,0.244,0.488,30,18,550810.041,-0.055,0.994,1.282,0.122,0.549,30,18,550960.041,-0.053,0.994,0.977,0.183,0.366,30,18,551110.041,-0.054,0.993,1.221,0.244,0.427,30,18,551260.039,-0.054,0.995,1.160,0.061,0.366,30,18,551410.038,-0.054,0.993,1.221,0.183,0.610,30,18,551560.040,-0.054,0.991,1.221,0.122,0.122,30,18,551710.042,-0.054,0.993,1.160,0.122,0.427,30,18,551860.041,-0.054,0.993,1.282,0.244,0.488,30,18,552010.041,-0.055,0.994,1.160,0.305,0.366,30,18,552160.040,-0.056,0.995,1.160,0.183,0.610,30,18,552320.040,-0.054,0.994,1.221,0.183,0.488,30,18,552460.037,-0.053,0.994,1.099,0.061,0.549,30,18,552610.039,-0.051,0.993,1.099,0.122,0.488,30,18,553060.039,-0.052,0.993,1.099,0.244,0.488,30,18,553210.040,-0.051,0.995,1.404,0.366,0.549,30,18,553360.041,-0.053,0.991,1.343,0.122,0.549,30,18,553510.042,-0.053,0.993,1.343,-0.061,0.549,30,18,553670.042,-0.056,0.994,1.343,0.244,0.732,30,18,553810.042,-0.055,0.993,1.343,0.183,0.671,30,18,553960.041,-0.056,0.992,1.099,0.305,0.671,30,18,554110.039,-0.056,0.994,1.038,0.183,0.488,30,18,554260.040,-0.057,0.993,1.221,0.122,0.671,30,18,554410.040,-0.055,0.994,1.099,0.122,0.854,30,18,554560.039,-0.053,0.995,0.977,0.244,0.427,30,18,554710.038,-0.052,0.993,1.099,0.244,0.549,30,18,554860.039,-0.052,0.994,1.282,0.122,0.671,30,18,555010.039,-0.051,0.992,1.160,0.244,0.488,30,18,555310.041,-0.055,0.993,1.221,0.183,0.549,30,18,555760.041,-0.054,0.994,1.160,0.122,0.488,30,18,555910.039,-0.055,0.993,1.221,0.122,0.671,30,18,556060.040,-0.053,0.992,1.343,0.122,0.671,30,18,556210.039,-0.053,0.990,1.465,0.122,0.671,30,18,556510.040,-0.054,0.993,1.282,0.183,0.427,30,18,556660.040,-0.054,0.994,1.099,0.061,0.610,30,18,556810.040,-0.054,0.994,1.282,0.244,0.610,30,18,556960.040,-0.056,0.993,1.221,0.122,0.732,30,18,557110.042,-0.053,0.993,1.160,0.183,0.305,30,18,557260.040,-0.052,0.992,1.282,0.305,0.549,30,18,557410.039,-0.052,0.994,1.221,0.061,0.549,30,18,557560.039,-0.053,0.994,1.282,0.183,0.610,30,18,557720.039,-0.055,0.994,1.465,0.183,0.671,30,18,558010.040,-0.056,0.993,1.465,0.183,0.732,30,18,558160.040,-0.054,0.995,1.282,0.183,0.549,30,18,558310.039,-0.054,0.993,1.160,0.244,0.549,30,18,558460.039,-0.052,0.992,1.160,0.183,0.610,30,18,558620.039,-0.052,0.992,1.221,0.244,0.732,30,18,558760.040,-0.051,0.994,0.916,0.305,0.427,30,18,558910.039,-0.050,0.994,1.343,0.427,0.610,30,18,559060.042,-0.053,0.993,1.160,0.244,0.427,30,18,559210.041,-0.054,0.991,1.221,0.305,0.549,30,18,559360.040,-0.055,0.992,1.343,0.427,0.488,30,18,559510.039,-0.055,0.993,1.343,0.183,0.671,30,18,559660.040,-0.056,0.994,1.343,0.122,0.671,30,18,559810.040,-0.058,0.993,1.160,0.305,0.610,30,18,559960.041,-0.056,0.994,1.160,0.061,0.549,30,18,560110.039,-0.053,0.992,1.160,0.183,0.549,30,18,560260.041,-0.053,0.992,1.038,0.061,0.427,30,18,560410.040,-0.052,0.991,1.221,0.122,0.488,30,18,560560.041,-0.052,0.992,1.343,0.366,0.549,30,18,560710.040,-0.052,0.992,1.160,0.427,0.549,30,18,560860.039,-0.054,0.994,1.404,0.244,0.549,30,18,561010.037,-0.054,0.993,1.343,0.305,0.549,30,18,561160.038,-0.053,0.995,1.343,0.122,0.488,30,18,561310.039,-0.053,0.995,1.099,0.061,0.488,30,18,561460.039,-0.052,0.993,1.099,0.305,0.488,30,18,561610.040,-0.051,0.993,1.038,0.305,0.427,30,18,561760.040,-0.051,0.992,1.282,0.122,0.549,30,18,561910.041,-0.053,0.993,1.221,0.183,0.549,30,18,562060.041,-0.053,0.993,1.282,0.183,0.732,30,18,562210.042,-0.054,0.995,1.099,0.305,0.488,30,18,562360.042,-0.055,0.994,1.343,0.183,0.610,30,18,562510.041,-0.055,0.994,1.404,0.305,0.610,30,18,562660.040,-0.056,0.993,1.099,0.183,0.610,30,18,562810.040,-0.054,0.991,1.282,0.244,0.610,30,18,562960.039,-0.053,0.992,1.160,0.305,0.671,30,18,563110.038,-0.054,0.993,1.160,0.305,0.793,30,18,563260.039,-0.053,0.991,1.282,0.305,0.488,30,18,563410.040,-0.052,0.991,1.160,0.122,0.549,30,18,563560.041,-0.053,0.994,1.404,0.183,0.671,30,18,563710.041,-0.053,0.992,1.221,0.244,0.549,30,18,563860.039,-0.052,0.994,1.221,0.061,0.427,30,18,564010.039,-0.052,0.996,1.282,0.244,0.671,30,18,564160.039,-0.054,0.991,1.099,0.244,0.671,30,18,564310.038,-0.052,0.993,1.282,0.244,0.610,30,18,564460.037,-0.053,0.993,1.221,0.305,0.366,30,18,564610.039,-0.053,0.993,1.282,0.244,0.549,30,18,564760.042,-0.053,0.993,1.282,0.183,0.549,30,18,564910.042,-0.055,0.991,0.977,0.244,0.427,30,18,565060.041,-0.057,0.994,1.282,0.488,0.549,30,18,565210.041,-0.057,0.992,1.282,0.183,0.671,30,18,565360.041,-0.057,0.993,0.793,0.366,0.122,30,18,565510.040,-0.056,0.992,0.916,0.366,0.305,30,18,565660.041,-0.057,0.993,0.916,0.244,0.305,30,18,565810.040,-0.054,0.991,1.221,0.122,0.549,30,18,565960.039,-0.054,0.992,1.160,0.305,0.671,30,18,566110.040,-0.053,0.993,1.099,0.122,0.671,30,18,566260.039,-0.052,0.993,1.221,0.183,0.732,30,18,566410.039,-0.051,0.995,1.038,0.244,0.427,30,18,566560.040,-0.052,0.994,1.282,0.305,0.549,30,18,566710.039,-0.053,0.993,1.343,0.305,0.671,30,18,567010.038,-0.052,0.993,1.282,0.244,0.488,30,18,567160.039,-0.053,0.990,1.404,0.122,0.671,30,18,567310.040,-0.055,0.992,1.099,0.305,0.549,30,18,567460.041,-0.053,0.993,1.160,0.305,0.427,30,18,567610.039,-0.054,0.993,1.099,0.305,0.488,30,18,567760.040,-0.053,0.992,1.221,0.183,0.732,30,18,567910.041,-0.053,0.993,1.343,0.122,0.427,30,18,568060.041,-0.054,0.993,1.221,0.183,0.488,30,18,568210.040,-0.054,0.992,1.343,0.183,0.610,30,18,568360.040,-0.053,0.993,1.282,0.305,0.732,30,18,568510.040,-0.052,0.992,1.343,0.244,0.671,30,18,568660.040,-0.052,0.993,1.160,0.305,0.427,30,18,568810.039,-0.054,0.993,1.526,0.427,0.488,30,18,568960.039,-0.055,0.993,1.343,0.244,0.610,30,18,569110.039,-0.054,0.993,1.343,0.122,0.549,30,18,569260.040,-0.053,0.993,1.343,0.244,0.610,30,18,569410.040,-0.053,0.994,1.343,0.183,0.549,30,18,569560.040,-0.053,0.994,1.404,0.183,0.488,30,18,569710.041,-0.053,0.993,1.038,0.305,0.366,30,18,569860.039,-0.052,0.994,1.221,0.183,0.488,30,18,570010.040,-0.053,0.995,1.343,0.183,0.610,30,18,570160.040,-0.053,0.991,1.160,0.183,0.549,30,18,570310.041,-0.054,0.993,1.160,0.305,0.488,30,18,570460.040,-0.055,0.992,1.282,0.366,0.732,30,18,570610.041,-0.055,0.993,1.282,0.244,0.488,30,18,570760.042,-0.055,0.993,1.404,0.183,0.549,30,18,570910.040,-0.054,0.992,1.343,0.061,0.610,30,18,571060.039,-0.054,0.993,1.221,0.244,0.488,30,18,571210.040,-0.053,0.990,1.282,0.366,0.610,30,18,571360.039,-0.054,0.993,1.282,0.244,0.732,30,18,571510.041,-0.054,0.994,1.160,0.305,0.732,30,18,571660.040,-0.053,0.994,1.221,0.061,0.549,30,18,571810.038,-0.053,0.994,1.343,0.244,0.671,30,18,571960.040,-0.052,0.992,1.160,0.305,0.549,30,18,572110.040,-0.052,0.993,1.099,0.244,0.366,30,18,572260.040,-0.054,0.993,1.099,0.244,0.305,30,18,572410.039,-0.054,0.994,1.343,0.244,0.610,30,18,572560.040,-0.055,0.993,1.526,0.305,0.671,30,18,572710.039,-0.055,0.993,1.221,0.244,0.488,30,18,572860.039,-0.056,0.992,1.404,0.305,0.671,30,18,573010.041,-0.055,0.992,1.221,0.061,0.610,30,18,573160.039,-0.054,0.993,1.282,0.183,0.549,30,18,573310.040,-0.054,0.991,1.282,0.183,0.671,30,18,573460.041,-0.051,0.994,1.282,0.183,0.610,30,18,573610.040,-0.053,0.994,1.282,0.305,0.549,30,18,573760.041,-0.052,0.994,1.160,0.305,0.549,30,18,573910.039,-0.052,0.993,1.282,0.244,0.732,30,18,574060.040,-0.054,0.993,1.282,0.183,0.549,30,18,574210.039,-0.053,0.994,1.282,0.183,0.549,30,18,574360.040,-0.054,0.993,1.038,0.244,0.366,30,18,574510.039,-0.054,0.993,1.221,0.244,0.549,30,18,574660.042,-0.055,0.991,1.282,0.244,0.427,30,18,574810.041,-0.054,0.993,1.099,0.244,0.244,30,18,574960.042,-0.054,0.994,1.099,0.244,0.488,30,18,575110.040,-0.055,0.994,1.404,0.183,0.610,30,18,575260.040,-0.055,0.992,1.099,0.305,0.488,30,18,575410.041,-0.053,0.991,1.221,0.061,0.671,30,18,575560.039,-0.054,0.992,1.160,0.305,0.610,30,18,575710.039,-0.052,0.992,1.099,0.244,0.549,30,18,575860.040,-0.052,0.993,1.221,0.122,0.610,30,18,576010.040,-0.053,0.993,1.221,0.122,0.488,30,18,576160.039,-0.052,0.993,1.221,0.244,0.671,30,18,576310.039,-0.054,0.992,0.916,0.549,0.305,30,18,576460.040,-0.054,0.992,1.160,0.183,0.427,30,18,576610.040,-0.054,0.992,1.160,0.305,0.549,30,18,576760.040,-0.054,0.993,1.221,0.122,0.427,30,18,576910.040,-0.054,0.993,1.343,0.305,0.610,30,18,577060.038,-0.054,0.993,1.465,0.122,0.671,30,18,577210.040,-0.055,0.992,1.343,0.183,0.671,30,18,577360.041,-0.053,0.994,1.038,0.183,0.366,30,18,577510.040,-0.053,0.992,1.343,0.183,0.671,30,18,577660.039,-0.053,0.993,1.282,0.366,0.793,30,18,577810.040,-0.052,0.995,1.282,0.366,0.549,30,18,577960.040,-0.053,0.992,1.160,0.244,0.488,30,18,578110.041,-0.053,0.993,1.221,0.244,0.610,30,18,578260.041,-0.052,0.992,1.465,0.183,0.671,30,18,578410.040,-0.052,0.993,1.404,0.244,0.488,30,18,578560.041,-0.052,0.993,1.160,0.122,0.488,30,18,578710.041,-0.052,0.993,1.221,0.244,0.427,30,18,578860.041,-0.053,0.993,1.404,0.244,0.427,30,18,579010.039,-0.055,0.993,1.221,0.183,0.427,30,18,579160.041,-0.055,0.992,1.343,0.122,0.488,30,18,579310.040,-0.054,0.993,1.282,0.244,0.610,30,18,579460.040,-0.056,0.993,1.343,0.244,0.427,30,18,579610.038,-0.055,0.992,0.977,0.122,0.488,30,18,579760.039,-0.054,0.993,1.221,0.244,0.610,30,18,579910.040,-0.053,0.991,1.221,0.244,0.366,30,18,580060.040,-0.051,0.993,1.282,0.183,0.427,30,18,580510.040,-0.052,0.993,1.404,0.244,0.549,30,18,580660.040,-0.054,0.994,1.282,0.244,0.549,30,18,580810.040,-0.053,0.992,1.282,0.305,0.488,30,18,580960.039,-0.056,0.992,1.160,0.366,0.366,30,18,581110.039,-0.056,0.994,1.343,0.366,0.610,30,18,581260.038,-0.055,0.993,1.282,0.366,0.610,30,18,581410.039,-0.054,0.993,1.160,0.366,0.549,30,18,581560.039,-0.054,0.992,1.160,0.427,0.488,30,18,581710.042,-0.053,0.993,1.221,0.366,0.488,30,18,581860.041,-0.050,0.994,1.160,0.061,0.610,30,18,582310.040,-0.050,0.990,1.282,0.305,0.549,30,18,582460.037,-0.052,0.993,1.343,0.244,0.427,30,18,582610.038,-0.052,0.994,0.977,0.122,0.549,30,18,582760.038,-0.055,0.992,1.282,0.183,0.549,30,18,582910.037,-0.055,0.993,1.221,0.183,0.610,30,18,583060.038,-0.058,0.990,1.221,0.122,0.732,30,18,583210.041,-0.058,0.991,1.221,0.122,0.366,30,18,583360.042,-0.054,0.994,1.099,0.183,0.488,30,18,583660.042,-0.052,0.992,1.099,0.122,0.488,30,18,583810.041,-0.053,0.994,1.160,0.427,0.671,30,18,583960.040,-0.050,0.993,1.038,0.366,0.671,30,18,584110.039,-0.050,0.991,0.977,0.366,0.305,30,18,584260.038,-0.051,0.994,1.404,0.305,0.671,30,18,584410.037,-0.050,0.993,1.526,0.305,0.427,30,18,584560.037,-0.053,0.992,1.282,0.122,0.488,30,18,584710.038,-0.055,0.992,1.221,0.366,0.549,30,18,584860.040,-0.056,0.993,1.160,0.183,0.427,30,18,585010.041,-0.056,0.993,1.221,0.366,0.427,30,18,585160.041,-0.056,0.994,1.038,0.305,0.427,30,18,585310.041,-0.055,0.995,1.282,0.244,0.427,30,18,585460.042,-0.054,0.992,1.160,0.244,0.366,30,18,585610.040,-0.052,0.993,0.366,0.061,-0.366,30,18,585760.039,-0.052,0.992,0.671,0.244,0.366,30,18,585910.037,-0.051,0.993,1.099,0.183,0.366,30,18,586060.038,-0.050,0.995,0.977,0.122,0.488,30,18,586210.038,-0.050,0.992,1.160,0.183,0.732,30,18,586360.038,-0.051,0.991,1.465,0.305,0.610,30,18,586510.036,-0.052,0.991,1.099,0.366,0.610,30,18,586660.039,-0.053,0.990,1.099,0.305,0.549,30,18,586810.042,-0.055,0.993,1.221,0.305,0.488,30,18,586960.041,-0.056,0.993,1.282,0.366,0.488,30,18,587110.043,-0.055,0.992,1.038,0.244,0.488,30,18,587260.041,-0.054,0.993,1.221,0.244,0.488,30,18,587410.039,-0.054,0.994,1.221,0.183,0.427,30,18,587560.039,-0.052,0.995,1.099,0.244,0.488,30,18,587710.039,-0.051,0.993,0.977,0.305,0.366,30,18,587860.038,-0.050,0.993,1.343,0.244,0.427,30,18,588010.038,-0.050,0.993,1.221,0.366,0.488,30,18,588160.039,-0.052,0.992,1.282,0.244,0.366,30,18,588310.042,-0.054,0.994,1.282,0.427,0.488,30,18,588610.041,-0.054,0.995,1.282,0.244,0.488,30,18,588760.040,-0.055,0.993,1.343,0.183,0.427,30,18,588910.041,-0.054,0.991,1.343,0.244,0.427,30,18,589060.040,-0.055,0.992,1.343,0.183,0.488,30,18,589210.040,-0.055,0.995,1.160,0.183,0.549,30,18,589360.039,-0.054,0.994,0.854,0.305,0.244,30,18,589510.039,-0.054,0.994,1.038,0.366,0.549,30,18,589660.039,-0.052,0.994,1.160,0.305,0.549,30,18,589810.038,-0.052,0.993,1.160,0.183,0.488,30,18,589960.040,-0.051,0.993,1.282,0.183,0.366,30,18,590110.039,-0.051,0.990,1.343,0.183,0.549,30,18,590260.041,-0.051,0.994,1.160,0.366,0.610,30,18,590410.039,-0.051,0.992,1.160,0.427,0.427,30,18,590560.041,-0.053,0.993,1.221,0.305,0.549,30,18,590710.040,-0.055,0.995,1.282,0.305,0.427,30,18,590860.040,-0.055,0.993,1.282,0.366,0.427,30,18,591010.039,-0.055,0.994,1.343,0.183,0.488,30,18,591160.040,-0.054,0.993,1.343,0.244,0.549,30,18,591310.039,-0.055,0.991,1.343,0.122,0.366,30,18,591460.039,-0.052,0.994,1.404,0.244,0.488,30,18,591610.038,-0.053,0.990,1.160,0.366,0.488,30,18,591760.039,-0.052,0.996,1.465,0.183,0.610,30,18,591910.039,-0.049,0.992,0.793,0.244,0.305,30,18,592060.042,-0.052,0.993,1.465,0.488,0.427,30,18,592210.041,-0.051,0.995,1.282,0.305,0.671,30,18,592360.040,-0.054,0.991,1.282,0.366,0.549,30,18,592510.041,-0.053,0.993,1.160,0.244,0.549,30,18,592660.040,-0.056,0.991,1.343,0.305,0.610,30,18,592810.038,-0.056,0.994,1.099,0.366,0.549,30,18,592960.038,-0.055,0.994,1.465,0.183,0.488,30,18,593110.039,-0.054,0.991,1.160,0.122,0.610,30,18,593260.040,-0.052,0.995,1.038,0.244,0.549,30,18,593410.042,-0.053,0.994,1.282,0.183,0.305,30,18,593560.042,-0.052,0.993,1.099,0.122,0.366,30,18,593710.041,-0.050,0.993,1.099,0.305,0.305,30,18,594010.039,-0.052,0.994,1.099,0.244,0.366,30,18,594160.039,-0.052,0.994,1.160,0.122,0.610,30,18,594310.038,-0.053,0.992,1.221,0.366,0.427,30,18,594460.038,-0.054,0.993,1.099,0.183,0.305,30,18,594610.038,-0.055,0.993,1.282,0.183,0.610,30,18,594760.039,-0.055,0.990,1.099,0.305,0.549,30,18,594910.046,-0.053,0.986,1.099,0.061,0.610,30,18,595060.043,-0.058,0.994,1.099,0.671,0.305,30,18,595210.041,-0.055,0.995,1.099,-0.244,0.671,30,18,595360.040,-0.057,0.996,0.854,0.549,0.488,30,18,595510.041,-0.050,0.992,1.099,0.244,0.549,30,18,595660.039,-0.052,0.992,1.465,0.183,0.610,30,18,595810.040,-0.052,0.991,1.526,0.183,0.488,30,18,595960.038,-0.052,0.992,1.282,0.183,0.488,30,18,596110.038,-0.054,0.994,1.404,0.244,0.610,30,18,596260.039,-0.055,0.994,0.977,0.122,0.244,30,18,596710.041,-0.055,0.993,1.099,0.122,0.366,30,18,596860.041,-0.055,0.992,1.099,0.366,0.488,30,18,597010.041,-0.053,0.994,1.038,0.183,0.366,30,18,597160.041,-0.052,0.994,1.099,0.305,0.427,30,18,597310.041,-0.052,0.994,1.099,0.183,0.549,30,18,597460.040,-0.053,0.992,1.221,0.183,0.427,30,18,597610.038,-0.053,0.992,1.099,0.305,0.427,30,18,598060.039,-0.053,0.993,1.099,0.366,0.244,30,18,598210.040,-0.054,0.992,1.099,0.305,0.366,30,18,598360.038,-0.054,0.993,1.221,0.305,0.366,30,18,598510.040,-0.054,0.993,1.404,0.244,0.549,30,18,598660.041,-0.053,0.991,1.160,0.427,0.366,30,18,598810.041,-0.054,0.993,1.221,0.305,0.488,30,18,598960.042,-0.055,0.994,1.160,0.305,0.549,30,18,599110.042,-0.054,0.994,1.282,0.305,0.488,30,18,599260.041,-0.053,0.994,1.282,0.366,0.610,30,18,599410.041,-0.052,0.994,1.343,0.183,0.610,30,18,599560.039,-0.053,0.992,1.343,0.183,0.488,30,18,599710.039,-0.052,0.992,0.916,0.366,0.305,30,18,599860.037,-0.052,0.992,1.221,0.244,0.549,30,18,600010.038,-0.053,0.993,1.221,0.244,0.488,30,18,600160.037,-0.052,0.994,1.343,0.305,0.488,30,18,600310.040,-0.052,0.993,1.221,0.305,0.549,30,18,600460.041,-0.054,0.994,1.282,0.244,0.488,30,18,600610.041,-0.053,0.995,1.221,0.122,0.488,30,18,600760.040,-0.053,0.994,1.038,0.183,0.244,30,18,600910.042,-0.054,0.992,1.221,0.366,0.610,30,18,601060.042,-0.053,0.993,1.343,0.183,0.610,30,18,601210.040,-0.054,0.994,0.916,0.305,0.244,30,18,601360.038,-0.052,0.993,1.160,0.305,0.488,30,18,601510.037,-0.053,0.993,1.160,0.244,0.549,30,18,601660.038,-0.053,0.992,1.404,0.122,0.427,30,18,601810.038,-0.052,0.992,1.099,0.305,0.427,30,18,601960.040,-0.053,0.993,1.282,0.427,0.488,30,18,602110.040,-0.051,0.994,1.221,0.305,0.549,30,18,602260.041,-0.054,0.993,1.343,0.427,0.244,30,18,602410.041,-0.052,0.992,1.282,0.244,0.549,30,18,602560.039,-0.053,0.992,1.221,0.427,0.732,30,18,602710.041,-0.054,0.992,1.282,0.183,0.610,30,18,602860.040,-0.054,0.993,1.099,0.366,0.488,30,18,603010.038,-0.055,0.992,1.465,0.305,0.671,30,18,603160.041,-0.055,0.993,1.343,0.305,0.488,30,18,603310.039,-0.054,0.993,1.160,0.305,0.488,30,18,603460.039,-0.055,0.993,1.282,0.366,0.671,30,18,603610.039,-0.053,0.993,1.282,0.305,0.610,30,18,603760.039,-0.052,0.992,1.282,0.122,0.549,30,18,603910.041,-0.052,0.993,1.038,0.305,0.427,30,18,604060.040,-0.052,0.995,1.282,0.061,0.549,30,18,604210.041,-0.052,0.993,1.282,0.000,0.488,30,18,604360.039,-0.052,0.992,1.282,0.305,0.427,30,18,604510.039,-0.053,0.993,1.282,0.122,0.427,30,18,604660.040,-0.053,0.996,1.160,0.305,0.671,30,18,604810.038,-0.054,0.994,1.221,0.305,0.549,30,18,604960.038,-0.055,0.994,1.099,0.183,0.305,30,18,605110.040,-0.054,0.992,1.282,0.366,0.549,30,18,605260.039,-0.055,0.990,1.343,0.244,0.549,30,18,605410.041,-0.054,0.991,1.221,0.183,0.488,30,18,605560.041,-0.053,0.994,1.343,0.244,0.427,30,18,605710.041,-0.054,0.992,0.549,0.244,-0.244,30,18,605860.041,-0.052,0.995,0.183,-0.244,-0.671,30,18,606010.040,-0.053,0.994,0.732,0.427,0.000,30,18,606160.038,-0.053,0.995,0.977,0.305,0.305,30,18,606310.038,-0.053,0.993,1.221,0.183,0.488,30,18,606460.039,-0.053,0.994,1.099,0.305,0.549,30,18,606610.038,-0.053,0.993,1.282,0.244,0.610,30,18,606760.039,-0.054,0.993,1.404,0.305,0.610,30,18,606910.040,-0.054,0.992,1.282,0.366,0.488,30,18,607060.040,-0.053,0.993,1.160,0.366,0.305,30,18,607210.040,-0.052,0.993,1.221,0.122,0.488,30,18,607360.040,-0.053,0.993,1.282,0.244,0.610,30,18,607810.039,-0.052,0.994,1.282,0.305,0.671,30,18,607960.038,-0.053,0.993,1.038,0.305,0.549,30,18,608110.038,-0.054,0.994,0.916,0.183,0.305,30,18,608260.039,-0.054,0.994,1.160,0.305,0.427,30,18,608410.037,-0.053,0.997,1.282,0.244,0.549,30,18,608560.039,-0.054,0.992,1.282,0.244,0.610,30,18,608710.039,-0.053,0.992,1.343,0.244,0.427,30,18,608860.041,-0.054,0.994,1.282,0.305,0.427,30,18,609010.042,-0.054,0.994,1.221,0.366,0.549,30,18,609160.042,-0.052,0.994,1.099,0.183,0.488,30,18,609310.040,-0.052,0.994,1.160,0.183,0.549,30,18,609460.041,-0.052,0.994,1.282,0.000,0.671,30,18,609610.041,-0.053,0.993,1.160,0.183,0.366,30,18,609760.039,-0.053,0.994,1.282,0.244,0.610,30,18,609910.040,-0.052,0.994,1.038,0.305,0.793,30,18,610060.038,-0.053,0.995,1.221,0.122,0.610,30,18,610210.039,-0.053,0.994,1.221,0.183,0.366,30,18,610360.040,-0.055,0.994,1.221,0.305,0.488,30,18,610510.040,-0.053,0.994,1.404,0.183,0.671,30,18,610660.041,-0.054,0.993,1.221,0.183,0.366,30,18,610810.039,-0.053,0.992,1.221,0.244,0.488,30,18,610960.041,-0.053,0.994,1.221,0.305,0.427,30,18,611110.040,-0.053,0.994,1.221,0.183,0.549,30,18,611260.040,-0.053,0.994,1.038,0.183,0.183,30,18,611410.041,-0.052,0.993,1.282,0.122,0.488,30,18,611560.039,-0.053,0.993,1.343,0.244,0.427,30,18,611710.038,-0.052,0.994,1.038,0.366,0.366,30,18,611860.038,-0.052,0.994,1.282,0.061,0.366,30,18,612010.038,-0.052,0.992,1.221,0.183,0.427,30,18,612160.040,-0.052,0.993,1.160,0.183,0.549,30,18,612310.040,-0.053,0.994,1.282,0.244,0.488,30,18,612460.040,-0.053,0.994,1.343,0.305,0.488,30,18,612610.040,-0.053,0.994,1.099,0.305,0.244,30,18,612760.042,-0.054,0.993,1.404,0.488,0.427,30,18,612910.040,-0.054,0.992,1.221,0.244,0.427,30,18,613060.039,-0.053,0.994,1.343,0.183,0.366,30,18,613210.040,-0.053,0.995,1.221,0.305,0.366,30,18,613360.040,-0.053,0.995,1.160,0.366,0.549,30,18,613510.038,-0.052,0.994,1.221,0.305,0.549,30,18,613660.039,-0.052,0.992,0.977,0.305,0.427,30,18,613810.039,-0.052,0.991,1.343,0.244,0.610,30,18,613960.039,-0.052,0.993,1.343,0.244,0.610,30,18,614110.040,-0.054,0.992,1.221,0.427,0.549,30,18,614260.040,-0.054,0.993,1.282,0.244,0.610,30,18,614410.041,-0.054,0.994,1.221,0.244,0.488,30,18,614560.040,-0.054,0.993,1.160,0.305,0.610,30,18,614710.039,-0.053,0.992,1.099,0.427,0.366,30,18,614860.039,-0.053,0.994,1.404,0.305,0.427,30,18,615010.040,-0.053,0.993,1.343,0.305,0.305,30,18,615160.039,-0.053,0.993,1.160,0.244,0.488,30,18,615310.041,-0.052,0.993,1.221,0.366,0.488,30,18,615460.041,-0.052,0.993,1.160,0.366,0.549,30,18,615610.041,-0.052,0.992,1.343,0.244,0.610,30,18,615760.039,-0.054,0.993,0.916,0.244,0.427,30,18,615910.040,-0.053,0.993,1.221,0.244,0.610,30,18,616060.040,-0.052,0.992,1.221,0.122,0.366,30,18,616210.038,-0.052,0.993,1.160,0.244,0.549,30,18,616360.038,-0.054,0.994,1.343,0.305,0.488,30,18,616510.039,-0.054,0.992,1.160,0.244,0.488,30,18,616660.040,-0.054,0.993,1.221,0.366,0.366,30,18,616960.041,-0.054,0.991,1.160,0.305,0.427,30,18,617110.041,-0.055,0.993,1.160,0.305,0.244,30,18,617260.040,-0.054,0.994,0.977,0.305,0.183,30,18,617410.040,-0.051,0.992,1.343,0.305,0.549,30,18,617860.038,-0.052,0.993,1.160,0.244,0.366,30,18,618010.039,-0.052,0.993,1.404,0.244,0.549,30,18,618160.038,-0.052,0.992,1.282,0.305,0.610,30,18,618310.040,-0.052,0.995,1.160,0.366,0.488,30,18,618460.040,-0.052,0.993,1.343,0.244,0.427,30,18,618610.041,-0.053,0.992,1.343,0.183,0.427,30,18,618760.041,-0.054,0.993,1.282,0.122,0.427,30,18,618910.040,-0.055,0.991,0.977,0.122,0.244,30,18,619060.040,-0.056,0.991,1.282,0.061,0.549,30,18,619210.039,-0.055,0.991,1.099,0.122,0.366,30,18,619360.040,-0.053,0.993,1.160,0.244,0.366,30,18,619510.039,-0.052,0.992,1.160,0.183,0.427,30,18,619660.039,-0.051,0.994,1.221,0.305,0.488,30,18,619810.039,-0.051,0.992,1.282,0.427,0.366,30,18,619960.038,-0.051,0.992,1.221,0.122,0.549,30,18,620110.039,-0.051,0.993,1.343,0.061,0.366,30,18,620260.040,-0.052,0.993,1.343,0.244,0.488,30,18,620410.041,-0.053,0.993,1.038,0.305,0.305,30,18,620560.041,-0.054,0.994,1.221,0.305,0.549,30,18,620710.041,-0.054,0.993,1.282,0.183,0.549,30,18,620860.041,-0.053,0.992,1.099,0.183,0.427,30,18,621010.040,-0.055,0.992,1.221,0.305,0.488,30,18,621160.041,-0.055,0.992,1.221,0.183,0.610,30,18,621310.040,-0.054,0.993,1.221,0.183,0.549,30,18,621460.040,-0.054,0.994,1.038,0.244,0.366,30,18,621610.039,-0.052,0.993,1.282,0.122,0.488,30,18,621760.037,-0.052,0.993,1.404,0.122,0.610,30,18,621910.039,-0.052,0.993,1.099,0.244,0.427,30,18,622060.040,-0.052,0.993,1.160,0.366,0.366,30,18,622210.040,-0.051,0.993,1.099,0.305,0.427,30,18,622360.040,-0.052,0.991,1.404,0.183,0.610,30,18,622510.040,-0.053,0.992,1.221,0.244,0.305,30,18,622660.039,-0.054,0.993,1.404,0.183,0.427,30,18,622810.039,-0.053,0.993,1.404,0.244,0.488,30,18,622960.038,-0.053,0.993,1.221,0.305,0.671,30,18,623110.038,-0.054,0.991,1.221,0.183,0.610,30,18,623260.040,-0.054,0.993,1.343,0.305,0.488,30,18,623410.040,-0.054,0.994,1.221,0.427,0.549,30,18,623560.040,-0.052,0.994,1.099,0.305,0.427,30,18,623710.039,-0.053,0.993,1.282,0.183,0.427,30,18,623860.040,-0.052,0.993,1.343,0.244,0.549,30,18,624010.040,-0.052,0.993,1.221,0.244,0.427,30,18,624160.039,-0.053,0.991,1.282,0.183,0.366,30,18,624310.040,-0.053,0.993,1.221,0.183,0.488,30,18,624460.039,-0.052,0.994,1.221,0.305,0.488,30,18,624610.039,-0.054,0.992,1.160,0.305,0.305,30,18,624760.040,-0.053,0.994,1.160,0.305,0.427,30,18,624910.039,-0.053,0.992,1.221,0.183,0.610,30,18,625060.038,-0.054,0.993,1.099,0.305,0.549,30,18,625210.039,-0.053,0.992,0.977,0.183,0.488,30,18,625360.041,-0.054,0.991,1.221,0.183,0.488,30,18,625510.040,-0.053,0.994,1.099,0.305,0.122,30,18,625660.041,-0.052,0.993,0.732,0.183,-0.488,30,18,625810.042,-0.052,0.993,0.061,0.061,-0.610,30,18,625960.043,-0.053,0.994,0.122,0.061,-0.610,30,18,626110.041,-0.052,0.992,0.793,0.366,0.122,30,18,626260.040,-0.052,0.994,1.282,0.427,0.671,30,18,626410.039,-0.053,0.993,1.282,0.305,0.671,30,18,626560.040,-0.054,0.993,1.221,0.061,0.671,30,18,626710.039,-0.054,0.992,1.404,0.244,0.610,30,18,626860.038,-0.053,0.992,1.221,0.244,0.610,30,18,627010.038,-0.054,0.992,1.221,0.061,0.427,30,18,627160.041,-0.053,0.995,0.854,0.183,0.305,30,18,627310.039,-0.052,0.994,1.099,0.427,0.305,30,18,627760.041,-0.051,0.991,1.282,0.244,0.549,30,18,627910.041,-0.052,0.993,1.465,0.183,0.366,30,18,628060.039,-0.052,0.992,1.343,0.244,0.549,30,18,628210.039,-0.053,0.992,1.282,0.183,0.610,30,18,628360.039,-0.053,0.993,1.343,0.366,0.488,30,18,628660.039,-0.053,0.992,1.404,0.305,0.427,30,18,628810.040,-0.054,0.994,1.160,0.366,0.427,30,18,628960.040,-0.054,0.993,1.282,0.305,0.488,30,18,629110.041,-0.053,0.993,1.099,0.305,0.610,30,18,629260.041,-0.054,0.993,1.099,0.305,0.366,30,18,629410.041,-0.054,0.993,1.221,0.244,0.488,30,18,629560.039,-0.053,0.992,1.282,0.183,0.488,30,18,629710.039,-0.052,0.994,1.038,0.427,0.305,30,18,630010.040,-0.052,0.994,1.343,0.183,0.671,30,18,630160.038,-0.054,0.992,1.221,0.305,0.549,30,18,630310.038,-0.052,0.993,1.160,0.366,0.427,30,18,630460.038,-0.053,0.993,1.221,0.305,0.488,30,18,630610.040,-0.054,0.993,1.221,0.183,0.427,30,18,630760.040,-0.055,0.993,1.221,0.366,0.610,30,18,630910.042,-0.053,0.992,1.404,0.183,0.610,30,18,631060.040,-0.052,0.993,1.343,0.244,0.732,30,18,631210.040,-0.053,0.994,1.404,0.305,0.549,30,18,631360.041,-0.053,0.994,0.854,0.305,0.366,30,18,631510.041,-0.053,0.994,1.465,0.122,0.549,30,18,631660.040,-0.053,0.993,1.343,0.183,0.488,30,18,631810.039,-0.053,0.994,1.221,0.122,0.427,30,18,631960.039,-0.053,0.993,1.221,0.183,0.427,30,18,632110.039,-0.052,0.994,1.343,0.305,0.610,30,18,632260.039,-0.052,0.993,1.282,0.183,0.610,30,18,632410.040,-0.053,0.992,1.038,0.122,0.427,30,18,632560.040,-0.054,0.992,1.282,0.122,0.671,30,18,632710.041,-0.053,0.993,1.160,0.122,0.549,30,18,632860.041,-0.054,0.991,1.160,0.244,0.549,30,18,633010.040,-0.054,0.994,1.160,0.183,0.366,30,18,633160.041,-0.053,0.993,1.221,0.305,0.427,30,18,633310.040,-0.053,0.994,1.160,0.366,0.244,30,18,633460.040,-0.054,0.993,1.160,0.244,0.610,30,18,633610.039,-0.052,0.991,1.282,0.061,0.671,30,18,633760.039,-0.051,0.992,1.160,0.244,0.488,30,18,633910.039,-0.051,0.993,1.099,0.366,0.427,30,18,634060.039,-0.052,0.993,1.282,0.183,0.488,30,18,634210.039,-0.052,0.994,1.282,0.427,0.610,30,18,634360.040,-0.053,0.992,1.099,0.244,0.305,30,18,634510.039,-0.054,0.993,1.221,0.061,0.610,30,18,634660.038,-0.055,0.993,1.282,0.061,0.366,30,18,634810.039,-0.056,0.993,1.343,0.061,0.549,30,18,634960.040,-0.056,0.992,1.160,0.122,0.610,30,18,635110.039,-0.053,0.993,1.282,0.183,0.549,30,18,635410.039,-0.052,0.994,1.038,0.122,0.366,30,18,635560.039,-0.050,0.994,1.221,0.244,0.549,30,18,635710.039,-0.051,0.994,1.221,0.183,0.610,30,18,635860.040,-0.051,0.995,1.404,0.305,0.366,30,18,636010.040,-0.052,0.993,1.221,0.122,0.427,30,18,636160.041,-0.052,0.993,1.343,0.122,0.549,30,18,636310.040,-0.052,0.992,1.404,0.366,0.610,30,18,636460.041,-0.055,0.993,1.038,0.244,0.366,30,18,636610.040,-0.056,0.989,1.099,0.366,0.366,30,18,636760.040,-0.056,0.995,1.404,0.122,0.366,30,18,636910.038,-0.055,0.993,1.160,0.183,0.610,30,18,637060.040,-0.052,0.993,1.038,0.183,0.366,30,18,637210.040,-0.052,0.993,1.160,0.366,