acc x,acc y,acc z,gyro x,gyro y,gyro z,temp,humidity,timestamp0.578,-1.594,0.195,-32.837,-39.856,-248.352,23,57,53930.610,-1.622,0.328,-7.141,-52.795,-271.545,23,57,54070.669,-1.730,0.304,-10.498,-41.138,-276.184,23,57,54220.564,-1.797,0.232,-7.202,9.399,-282.288,23,57,54370.479,-1.729,0.152,-0.854,40.405,-284.973,23,57,54520.450,-1.727,0.111,-3.296,50.171,-284.607,23,57,54670.216,-1.684,0.007,-10.315,60.181,-277.222,23,57,54820.238,-1.654,-0.203,-9.338,46.631,-253.052,23,57,54970.326,-1.611,-0.345,-6.653,26.917,-234.131,23,57,55130.476,-1.428,-0.219,9.155,-47.119,-183.899,23,57,55270.855,-0.962,0.037,35.461,-117.676,-119.507,23,57,55421.010,-0.717,0.139,43.762,-137.573,-84.717,23,57,55571.021,-0.737,0.195,30.579,-123.108,-20.203,23,57,55720.938,-0.854,0.360,5.981,-55.359,26.123,23,57,55870.812,-0.901,0.488,1.099,-20.569,43.396,23,57,56020.851,-1.180,0.357,1.770,61.462,64.636,23,57,5617-1.502,-1.042,0.943,22.461,80.444,92.712,23,57,5632-0.918,-1.375,0.273,-1.282,98.389,58.105,23,57,5647-0.000,-1.282,0.640,19.775,104.370,54.138,23,57,5662-0.099,-1.662,0.721,2.441,25.940,110.107,23,57,56770.399,-1.384,0.329,-5.432,65.918,130.615,23,57,56920.208,-1.147,0.087,6.165,84.717,138.489,23,57,57070.660,-0.971,-0.053,14.282,146.729,112.610,23,57,57220.427,-0.900,0.143,35.522,165.588,87.769,23,57,57370.253,-0.997,0.002,31.128,108.521,70.435,23,57,57520.007,-0.950,0.059,19.653,80.261,65.125,23,57,57680.174,-1.074,0.443,14.893,-9.460,75.012,23,57,57820.308,-1.104,0.357,10.193,-17.029,66.467,23,57,57970.338,-1.033,0.297,16.968,-0.061,55.847,23,57,58120.194,-1.010,0.105,20.935,37.415,38.635,23,57,58270.062,-0.988,0.084,24.170,45.837,25.818,23,57,58420.039,-0.993,0.111,23.987,39.612,21.973,23,57,58570.038,-1.011,0.154,21.362,20.203,20.569,23,57,58720.091,-1.027,0.109,20.142,0.671,20.691,23,57,58870.090,-1.045,0.068,17.883,-4.456,18.616,23,57,59020.154,-1.032,0.116,16.541,-5.493,17.517,23,57,59170.146,-1.008,0.188,15.503,-4.089,12.573,23,57,59320.101,-1.008,0.196,17.639,-1.038,5.920,23,57,59470.091,-1.008,0.199,19.226,-2.441,4.089,23,57,59620.135,-1.015,0.130,20.874,-6.531,1.953,23,57,59770.057,-1.001,0.039,22.888,-2.319,-2.319,23,57,59920.016,-1.001,-0.010,22.217,-2.014,-4.517,23,57,6007-0.008,-1.006,-0.037,17.456,-8.240,-4.089,23,57,60220.024,-1.016,0.003,11.047,-23.376,-1.831,23,57,60370.039,-1.020,0.059,7.324,-30.273,-0.854,23,57,60520.020,-1.021,0.065,6.226,-28.870,-0.793,23,57,60670.009,-0.998,0.041,4.211,-21.606,-0.122,23,57,6082-0.019,-0.998,0.046,2.991,-12.451,1.404,23,57,6097-0.017,-1.004,0.048,2.136,-8.240,3.174,23,57,6112-0.036,-1.006,0.094,-0.427,0.793,12.085,23,57,6127-0.091,-1.028,0.056,-0.061,0.549,15.198,23,57,6142-0.108,-1.027,0.078,0.977,-7.324,24.780,23,57,6157-0.034,-1.033,0.097,1.160,-5.432,31.494,23,57,6172-0.034,-1.037,0.068,1.587,-3.418,37.781,23,57,6187-0.043,-1.045,0.052,0.244,-0.610,40.833,23,57,6202-0.001,-1.023,0.057,-0.183,4.456,45.532,23,57,62170.016,-1.022,0.057,-0.305,9.827,50.415,23,57,62330.035,-1.018,0.060,-0.854,14.038,52.612,23,57,62470.056,-1.021,0.034,-1.587,19.287,57.129,23,57,62620.053,-1.016,0.019,-2.075,18.555,64.453,23,57,62770.066,-1.008,0.035,-2.136,18.188,67.871,23,57,62920.094,-1.019,0.042,-1.404,22.095,73.608,23,57,63070.107,-1.064,0.053,-1.465,22.034,78.796,23,57,63220.158,-1.093,0.105,-1.709,18.860,81.238,23,57,63370.173,-1.116,0.138,-3.296,13.245,84.412,23,57,63520.204,-1.123,0.154,-3.357,11.169,87.219,23,57,63670.255,-1.190,0.226,-3.784,12.085,89.050,23,57,63820.233,-1.269,0.201,-7.751,19.470,93.018,23,57,63970.064,-1.330,0.161,-3.296,15.198,101.440,23,57,64120.136,-1.312,0.336,-2.197,15.442,107.361,23,57,64270.090,-1.413,0.344,-2.197,28.748,119.568,23,57,6442-0.132,-1.657,0.284,6.042,28.748,134.399,23,57,6457-0.182,-1.817,0.439,9.399,23.315,142.761,23,57,6472-0.276,-1.994,0.476,5.432,3.723,159.546,23,57,6488-0.589,-2.082,0.311,19.775,-31.982,166.138,23,57,6502-0.186,-1.702,0.196,33.875,-75.500,165.466,23,57,65170.250,-1.357,0.052,27.405,-114.197,163.574,23,57,65330.734,-1.146,-0.015,18.616,-118.408,161.804,23,57,65470.730,-1.034,-0.021,4.822,-96.680,143.616,23,57,65620.515,-0.797,-0.015,2.686,-85.083,115.601,23,57,65780.467,-0.464,-0.041,7.324,-59.692,74.951,23,57,65920.149,-0.524,0.057,24.780,-34.668,37.354,23,57,6607-0.198,-0.568,-0.026,62.317,-37.354,-14.160,23,57,6622-0.076,-0.392,0.091,50.415,-43.335,-33.508,23,57,66370.073,-0.362,0.137,38.391,-36.499,-45.288,23,57,66520.114,-0.368,0.148,30.518,-21.667,-73.792,23,57,66670.091,-0.367,0.177,35.156,-11.658,-105.469,23,57,66820.067,-0.381,0.191,35.522,-7.141,-135.376,23,57,66970.057,-0.391,0.182,31.921,1.343,-150.208,23,57,67120.074,-0.428,0.139,30.701,2.991,-177.734,23,57,67270.065,-0.465,0.118,26.733,-2.380,-202.698,23,57,67420.045,-0.551,0.113,22.949,-7.751,-213.501,23,57,67570.055,-0.642,0.109,11.841,-23.865,-227.844,23,57,67720.081,-0.742,0.142,-1.526,-45.532,-238.953,23,57,6787-0.015,-0.916,0.244,-4.517,-56.641,-246.460,23,57,6802-0.091,-1.071,0.163,13.367,-81.116,-261.414,23,57,68170.047,-1.325,0.223,4.272,-91.980,-259.338,23,57,68320.684,-1.771,0.240,24.109,-110.596,-273.010,23,57,68470.755,-1.820,0.331,28.442,-98.267,-281.677,23,57,68620.698,-1.995,0.337,31.250,-39.429,-284.607,23,57,68770.694,-1.875,0.261,30.579,-6.775,-277.710,23,57,68920.445,-1.725,0.052,29.602,-3.723,-267.334,23,57,69070.488,-1.685,-0.036,23.804,-32.166,-220.520,23,57,69220.676,-1.546,-0.129,19.653,-85.999,-165.894,23,57,69370.904,-1.343,0.022,23.315,-117.432,-108.337,23,57,69521.011,-1.258,0.112,41.016,-113.220,-75.928,23,57,69671.108,-0.921,0.200,39.734,-96.252,-5.798,23,57,69821.126,-0.787,0.390,19.592,-64.087,57.678,23,57,69981.150,-0.849,0.566,10.132,-38.147,82.886,23,57,70121.106,-0.893,0.637,-7.935,28.870,118.042,23,57,70270.761,-0.977,0.717,-20.813,112.183,126.648,23,57,7043-3.146,-1.625,-0.592,0.549,178.772,74.219,23,57,7057-2.112,-1.437,-0.976,88.074,106.934,11.108,23,57,70720.443,0.014,1.784,-61.890,36.621,66.284,23,57,7087-0.922,-2.080,1.153,-16.174,127.197,61.890,23,57,7102-0.272,-1.957,1.118,26.428,53.711,79.956,23,57,71170.079,-1.421,0.893,12.207,124.084,85.938,23,57,71320.630,-1.355,-0.224,44.006,235.596,71.106,23,57,71470.255,-1.056,-0.484,39.124,234.985,70.679,23,57,7162-0.202,-0.983,-0.357,13.184,118.774,75.378,23,57,71770.091,-0.923,-0.275,2.991,21.729,83.862,23,57,7192-0.036,-1.038,0.036,6.653,-89.844,94.910,23,57,72070.089,-1.001,0.244,-18.982,-92.896,93.933,23,57,72220.296,-1.089,0.374,-14.221,-44.128,75.317,23,57,72370.331,-1.104,0.289,8.301,16.602,48.035,23,57,72520.272,-1.010,0.144,17.029,47.363,35.034,23,57,72670.178,-1.002,0.099,20.386,83.801,18.799,23,57,72820.014,-1.014,-0.066,11.719,61.707,16.724,23,57,7297-0.064,-1.018,-0.163,5.920,30.640,22.217,23,57,7312-0.047,-1.022,-0.100,-2.441,-27.100,30.457,23,57,73270.039,-1.036,0.076,-5.676,-41.687,31.677,23,57,73420.144,-1.011,0.140,-3.052,-22.034,24.414,23,57,73570.198,-1.000,0.209,-0.366,-8.118,19.165,23,57,73720.116,-1.015,0.207,8.667,14.587,11.230,23,57,73880.021,-1.021,0.077,11.963,16.052,10.986,23,57,74020.015,-0.998,-0.044,10.864,8.240,12.756,23,57,74170.005,-0.997,-0.045,5.432,-10.986,17.822,23,57,74320.010,-1.011,0.024,2.563,-24.048,22.095,23,57,74470.073,-1.023,0.081,2.319,-14.526,21.545,23,57,74620.116,-1.013,0.098,3.906,-6.714,20.447,23,57,74770.061,-1.021,0.114,6.042,5.615,18.555,23,57,74920.084,-1.019,0.056,7.263,7.324,18.311,23,57,75070.051,-1.023,0.040,6.592,3.418,19.775,23,57,75220.050,-1.008,0.060,7.019,0.610,20.996,23,57,75370.050,-1.012,0.050,7.935,2.258,22.583,23,57,75520.033,-1.021,-0.040,7.812,4.578,23.499,23,57,7567-0.006,-1.015,-0.094,5.249,6.104,28.137,23,57,7582-0.092,-1.004,-0.109,2.075,0.183,37.781,23,57,7597-0.103,-1.023,-0.028,0.183,-2.869,60.059,23,57,7612-0.097,-1.023,0.009,-0.793,-2.319,57.556,23,57,7627-0.035,-0.996,0.048,0.549,10.254,69.031,23,57,7642-0.013,-1.040,-0.021,0.732,20.752,90.149,23,57,7657-0.007,-1.055,-0.058,0.366,30.884,84.778,23,57,76720.057,-1.088,-0.045,-1.282,30.518,94.604,23,57,76870.148,-1.139,-0.032,-2.991,23.438,102.478,23,57,77020.171,-1.267,0.022,-5.066,21.118,106.079,23,57,77170.147,-1.339,0.100,-15.320,18.005,113.647,23,57,77330.060,-1.462,-0.046,-10.620,12.817,121.521,23,57,77470.081,-1.563,0.433,-0.305,6.836,129.028,23,57,77620.140,-1.677,0.543,-1.038,8.728,145.020,23,57,7777-0.085,-1.916,0.553,-7.263,7.874,165.222,23,57,7792-0.711,-2.417,0.438,-9.521,0.793,177.124,23,57,7807-0.605,-2.368,0.416,16.174,-24.963,191.895,23,57,7822-0.796,-2.158,0.592,22.766,-84.167,197.998,23,57,7837-0.346,-1.647,0.200,24.841,-119.019,195.557,23,57,78520.381,-1.432,0.111,17.151,-134.338,200.562,23,57,78671.029,-1.387,-0.101,-3.174,-66.406,173.706,23,57,78820.472,-1.121,-0.016,8.484,-34.302,131.836,23,57,78970.291,-0.856,-0.070,10.071,-36.316,114.502,23,57,7912-0.233,-0.544,0.081,26.001,-12.878,46.387,23,57,7927-0.306,-0.485,-0.055,51.208,-25.696,-9.155,23,57,7943-0.178,-0.364,-0.067,46.204,-30.029,-22.644,23,57,7957-0.003,-0.280,-0.084,31.982,-28.320,-53.101,23,57,79720.066,-0.247,-0.023,28.503,-20.142,-89.478,23,57,79870.041,-0.229,0.063,29.724,-15.015,-108.459,23,57,80020.028,-0.240,0.083,28.870,-4.700,-142.761,23,57,80170.004,-0.265,0.074,24.780,-1.892,-174.194,23,57,80320.021,-0.301,0.040,22.949,-4.517,-202.759,23,57,80470.028,-0.329,0.042,17.822,-13.977,-215.820,23,57,80620.024,-0.434,0.053,7.996,-28.870,-237.122,23,57,8077-0.052,-0.659,0.112,1.465,-56.091,-246.643,23,57,8092-0.047,-0.717,0.165,4.028,-71.716,-254.517,23,57,81070.020,-0.903,0.124,9.949,-81.421,-268.616,23,57,81220.218,-1.241,0.229,9.766,-92.590,-272.461,23,57,81370.675,-1.550,0.336,20.386,-102.905,-282.288,23,57,81520.716,-1.569,0.425,19.653,-75.073,-301.025,23,57,81670.772,-1.839,0.500,20.569,-17.578,-310.059,23,57,81820.740,-1.806,0.467,19.958,6.470,-312.805,23,57,81970.714,-1.806,0.340,15.442,48.157,-306.335,23,57,82120.623,-1.870,0.133,1.038,38.086,-261.963,23,57,82270.711,-1.609,-0.010,-0.854,-10.742,-200.134,23,57,82420.901,-1.478,-0.077,6.592,-28.687,-169.800,23,57,82571.163,-1.373,-0.110,35.767,-55.237,-94.849,23,57,82721.359,-0.916,-0.024,31.616,-79.590,-0.549,23,57,82881.396,-0.806,0.210,18.494,-76.355,40.710,23,57,83021.437,-0.823,0.384,-0.549,-25.391,100.647,23,57,8317-0.295,-1.351,0.473,-5.188,91.064,99.487,23,57,8332-2.165,-1.518,-0.833,27.771,129.517,56.030,23,57,8347-0.536,-1.175,-0.230,48.828,-23.499,67.383,23,57,8362-0.448,-0.990,1.969,-85.876,55.847,100.342,23,57,83770.146,-1.902,0.790,-32.959,40.466,120.850,23,57,83920.007,-1.374,1.056,15.564,51.697,115.723,23,57,84070.480,-1.305,0.286,36.438,168.152,95.215,23,57,84220.601,-1.267,-0.695,59.631,199.280,76.660,23,57,84370.177,-1.040,-0.392,43.701,161.194,80.200,23,57,84520.167,-0.983,-0.356,15.564,72.449,84.534,23,57,8467-0.072,-1.038,-0.048,0.854,-43.152,98.083,23,57,84820.143,-1.024,0.302,-4.578,-82.520,100.464,23,57,84970.165,-1.071,0.390,-8.118,-73.669,91.980,23,57,85120.455,-1.096,0.348,10.559,-4.333,61.096,23,57,85270.369,-1.058,0.094,21.790,45.288,34.363,23,57,85420.271,-1.015,0.058,20.996,55.298,26.550,23,57,85570.100,-1.013,-0.041,17.090,52.063,19.165,23,57,8572-0.068,-1.002,-0.119,9.094,6.165,25.452,23,57,8587-0.027,-1.002,-0.014,5.920,-11.292,27.100,23,57,86020.077,-1.034,0.008,1.465,-23.804,26.855,23,57,86170.113,-1.031,0.141,2.808,-16.663,23.438,23,57,86320.110,-1.016,0.239,6.897,-9.033,20.447,23,57,86470.112,-1.020,0.186,13.672,11.536,13.550,23,57,86620.071,-1.001,-0.001,14.832,17.029,12.329,23,57,8677-0.039,-0.993,-0.057,13.000,-0.549,17.517,23,57,8692-0.028,-0.989,-0.043,10.193,-11.292,20.386,23,57,87070.017,-1.012,0.024,9.644,-18.433,23.621,23,57,87220.112,-1.024,0.070,9.644,-4.944,22.217,23,57,87370.081,-1.004,0.018,9.827,5.554,20.874,23,57,87520.025,-0.999,-0.014,9.216,8.850,22.156,23,57,8767-0.006,-1.013,-0.031,8.057,2.136,27.344,23,57,87820.070,-1.010,0.007,8.118,2.258,28.748,23,57,87970.062,-1.020,0.041,8.789,6.226,30.640,23,57,88120.057,-1.031,0.030,9.338,9.644,33.875,23,57,88270.018,-1.021,-0.046,9.277,10.315,39.551,23,57,8842-0.002,-1.048,-0.040,9.094,7.629,43.213,23,57,8857-0.022,-1.056,-0.038,8.606,6.470,52.124,23,57,8872-0.050,-1.038,-0.020,9.460,7.690,63.232,23,57,8887-0.032,-1.029,0.000,10.132,10.254,69.458,23,57,8902-0.025,-1.046,-0.012,12.390,16.296,81.543,23,57,89170.011,-1.132,-0.011,13.794,25.330,93.506,23,57,89330.068,-1.206,0.129,14.099,23.682,104.675,23,57,89470.119,-1.231,0.207,12.451,25.391,108.826,23,57,89620.143,-1.350,0.106,11.230,31.189,117.859,23,57,8978-0.040,-1.576,0.016,13.794,24.048,131.104,23,57,8992-0.097,-1.710,0.175,17.151,16.907,139.832,23,57,9007-0.135,-1.815,0.283,21.362,6.104,161.255,23,57,9022-0.342,-2.165,0.431,16.357,-17.273,187.866,23,57,9037-1.069,-2.482,0.536,16.968,-38.391,217.041,23,57,9052-0.724,-2.234,0.549,39.795,-81.787,208.191,23,57,9067-0.657,-1.937,0.544,44.556,-129.639,202.698,23,57,90820.329,-1.401,0.096,32.776,-146.057,196.411,23,57,90970.683,-1.246,0.191,13.306,-149.658,193.604,23,57,91120.548,-1.220,0.126,-3.967,-114.807,155.396,23,57,91270.201,-0.859,0.061,2.808,-80.750,114.380,23,57,91420.423,-0.339,0.075,15.503,-75.256,89.905,23,57,91570.024,-0.341,0.292,16.602,-54.626,27.283,23,57,9172-0.354,-0.445,0.112,64.331,-36.438,-42.419,23,57,9187-0.101,-0.314,0.046,63.232,-43.091,-70.862,23,57,92020.142,-0.180,0.142,49.500,-41.199,-83.130,23,57,92170.071,-0.224,0.269,29.480,-33.752,-115.356,23,57,92330.000,-0.311,0.295,26.245,-23.560,-151.550,23,57,92470.002,-0.353,0.273,26.855,-17.334,-169.861,23,57,92620.066,-0.415,0.180,24.902,-6.714,-203.247,23,57,92780.053,-0.503,0.168,19.714,-8.484,-230.103,23,57,92920.011,-0.605,0.191,15.808,-13.245,-253.906,23,57,9307-0.078,-0.833,0.246,5.371,-29.724,-262.756,23,57,9323-0.005,-0.947,0.292,-11.414,-65.552,-270.142,23,57,9337-0.076,-1.274,0.301,-3.784,-96.497,-286.194,23,57,93520.238,-1.528,0.397,-7.874,-102.539,-287.720,23,57,93670.856,-1.958,0.449,-8.728,-119.141,-289.551,23,57,93820.756,-2.056,0.529,6.714,-121.643,-316.040,23,57,93970.782,-2.055,0.471,5.188,-90.332,-322.998,23,57,94120.595,-1.993,0.301,10.681,-27.344,-323.730,23,57,94270.635,-1.864,0.023,11.597,-7.507,-300.659,23,57,94420.768,-1.698,0.007,5.249,-46.143,-241.211,23,57,94571.041,-1.364,0.020,3.235,-68.359,-210.388,23,57,94721.328,-1.116,0.017,12.756,-91.248,-151.794,23,57,94871.380,-0.944,0.003,21.423,-94.666,-116.821,23,57,95021.404,-0.779,0.258,20.142,-103.210,-24.536,23,57,95171.445,-0.852,0.406,-4.761,-77.026,58.594,23,57,95331.415,-0.946,0.404,-18.738,-7.812,110.718,23,57,9547-1.703,-1.827,-0.048,-23.315,30.640,129.333,23,57,9562-1.049,-1.225,0.118,21.118,133.118,80.078,23,57,95780.645,-0.352,1.802,54.932,-65.552,71.594,23,57,9592-0.227,-2.031,0.810,-39.917,-54.993,89.783,23,57,96070.022,-1.422,0.754,-37.292,125.732,110.657,23,57,96220.395,-1.187,0.326,16.357,46.326,113.281,23,57,96370.352,-1.250,-0.134,-0.671,156.433,88.135,23,57,96520.463,-1.167,-0.511,50.171,192.078,74.829,23,57,96670.045,-1.113,-0.334,46.936,195.068,64.636,23,57,9682-0.021,-1.066,-0.280,19.470,96.436,83.313,23,57,96970.075,-1.032,0.216,7.935,34.363,90.515,23,57,97120.101,-1.077,0.274,-13.062,-70.312,103.027,23,57,97270.408,-1.040,0.306,-11.047,-81.665,91.858,23,57,97420.388,-1.045,0.270,-4.517,-60.303,80.872,23,57,97570.262,-1.053,0.196,12.146,1.709,53.345,23,57,97720.185,-1.024,0.092,19.226,48.706,34.241,23,57,97880.140,-1.011,0.018,21.240,72.510,20.874,23,57,9802-0.016,-1.011,-0.071,19.531,69.458,17.578,23,57,9817-0.057,-1.017,-0.009,12.329,26.672,21.057,23,57,9832-0.030,-1.013,0.015,2.808,-28.076,28.748,23,57,98470.051,-1.027,0.122,-1.526,-43.518,31.250,23,57,98620.122,-1.002,0.184,-2.197,-44.983,31.128,23,57,98770.150,-1.001,0.177,4.456,-13.916,23.682,23,57,98920.090,-1.003,0.117,8.179,2.563,19.897,23,57,99070.008,-1.001,-0.014,13.794,24.719,14.587,23,57,9922-0.035,-1.002,-0.031,11.292,10.986,18.005,23,57,99370.021,-1.009,0.002,9.583,-11.414,23.804,23,57,99520.113,-1.021,0.102,6.897,-17.822,25.208,23,57,99670.115,-1.010,0.110,6.104,-11.230,24.048,23,57,99820.095,-1.005,0.081,9.521,2.136,20.996,23,57,99970.024,-1.017,0.027,9.277,4.211,21.545,23,57,100120.009,-1.033,0.006,9.216,2.930,24.353,23,57,10027-0.014,-1.014,-0.008,7.996,1.465,28.198,23,57,10042-0.051,-1.005,-0.015,8.362,2.014,29.846,23,57,10057-0.093,-1.038,-0.046,7.568,4.639,37.842,23,57,10072-0.132,-1.035,-0.003,5.554,8.789,49.805,23,57,10088-0.137,-1.019,-0.006,4.272,10.620,65.002,23,57,10102-0.035,-1.028,0.009,4.761,13.367,72.632,23,57,101170.026,-1.081,-0.013,5.127,24.780,85.999,23,57,101320.039,-1.140,-0.042,5.066,35.400,97.534,23,57,101470.072,-1.185,0.003,4.578,33.875,102.966,23,57,101620.147,-1.287,0.117,2.258,25.513,113.953,23,57,101770.159,-1.509,0.120,-1.587,22.888,121.643,23,57,101920.047,-1.604,0.253,-2.380,23.315,125.671,23,57,102070.011,-1.699,0.452,2.747,16.174,138.855,23,57,10222-0.073,-1.979,0.527,7.751,7.385,155.273,23,57,10237-0.429,-2.285,0.455,6.226,0.793,178.955,23,57,10252-0.804,-2.463,0.490,-0.854,-10.864,194.214,23,56,10267-0.907,-2.325,0.640,27.588,-38.940,207.886,23,57,10282-0.846,-2.086,0.469,28.687,-82.642,212.646,23,57,102970.374,-1.519,-0.021,30.701,-111.145,205.933,23,57,103120.995,-1.334,-0.053,17.944,-135.254,203.735,23,57,103270.739,-1.222,0.077,-12.146,-91.797,186.462,23,57,103430.304,-0.887,-0.148,-17.212,-64.514,161.987,23,57,10357-0.094,-0.501,0.091,-0.183,-39.734,113.220,23,57,10372-0.393,-0.520,-0.010,18.494,-15.869,44.312,23,57,10387-0.257,-0.326,-0.014,48.462,-19.836,0.916,23,57,10402-0.031,-0.190,-0.030,51.880,-45.105,-33.630,23,57,104170.067,-0.177,0.046,32.043,-55.725,-60.364,23,57,104320.054,-0.188,0.101,26.062,-54.016,-108.826,23,57,104470.034,-0.227,0.205,29.541,-45.105,-116.028,23,57,104620.046,-0.275,0.216,31.677,-28.931,-151.672,23,57,104770.042,-0.307,0.195,27.710,-11.719,-184.937,23,57,104920.025,-0.364,0.158,27.039,-7.263,-200.928,23,57,105070.038,-0.448,0.178,25.391,-8.484,-229.858,23,57,105220.022,-0.645,0.184,15.808,-15.198,-254.333,23,57,105370.002,-0.790,0.243,9.766,-20.996,-263.733,23,57,105520.042,-0.840,0.326,-4.333,-44.983,-272.949,23,57,10567-0.029,-1.184,0.206,-1.831,-65.002,-293.274,23,57,105820.046,-1.371,0.304,2.930,-69.885,-301.453,23,57,105980.750,-1.917,0.395,-7.690,-79.956,-301.575,23,57,106120.835,-2.056,0.433,3.479,-90.942,-316.223,23,57,106270.803,-2.139,0.421,7.141,-36.011,-336.487,23,57,106420.699,-2.106,0.231,8.728,-2.075,-338.867,23,57,106570.623,-2.000,-0.133,13.672,38.513,-320.496,23,57,106720.765,-1.840,-0.214,7.812,-10.315,-257.507,23,57,106871.062,-1.466,-0.148,20.142,-99.548,-151.367,23,57,107021.458,-1.275,-0.120,43.579,-126.221,-67.383,23,57,107171.516,-0.808,0.031,37.231,-131.470,29.907,23,57,107321.454,-0.774,0.260,10.132,-98.694,68.054,23,57,107471.504,-0.832,0.505,-5.554,-20.691,119.202,23,57,10762-0.513,-1.314,0.567,-12.329,103.699,108.398,23,57,10777-2.422,-1.764,-0.104,37.598,153.198,46.143,23,57,10792-0.318,-0.998,0.443,47.302,-54.810,57.434,23,57,108070.036,-1.108,1.897,-113.586,192.261,97.229,23,57,108220.002,-2.038,0.671,5.432,156.372,107.117,23,57,108370.096,-1.325,1.163,24.963,83.008,107.910,23,57,108520.362,-1.353,0.264,32.776,201.233,89.233,23,57,108670.418,-1.123,-0.669,63.782,213.745,70.251,23,57,108820.226,-0.979,-0.745,49.622,179.138,70.435,23,57,108980.006,-1.016,-0.350,13.977,73.853,88.196,23,57,109120.153,-1.045,0.022,6.958,17.944,95.154,23,57,109270.075,-1.075,0.231,-11.597,-93.018,104.736,23,57,109430.088,-1.080,0.407,-18.188,-102.722,95.215,23,57,109570.457,-1.098,0.397,-8.667,-73.608,80.261,23,57,109720.449,-1.083,0.314,16.724,7.751,49.500,23,57,109870.307,-1.019,0.172,29.114,66.040,25.330,23,57,110020.128,-1.029,0.103,25.757,86.426,13.367,23,57,110170.040,-1.012,-0.109,22.522,81.848,11.047,23,57,11032-0.057,-1.001,-0.145,12.390,31.738,16.846,23,57,11047-0.084,-1.034,-0.095,1.831,-36.804,28.198,23,57,11062-0.021,-1.010,0.078,-2.441,-56.580,31.128,23,57,110770.015,-1.010,0.133,-2.991,-59.143,30.762,23,57,110920.078,-1.009,0.215,3.967,-26.245,24.353,23,57,111070.101,-1.002,0.193,8.301,20.447,15.564,23,57,111220.083,-1.001,0.121,13.550,33.325,12.878,23,57,11137-0.023,-1.001,0.015,13.306,21.729,16.235,23,57,11152-0.082,-1.012,-0.012,10.010,-8.179,24.170,23,57,111670.025,-1.028,0.071,9.094,-19.104,26.794,23,57,111820.093,-1.024,0.118,9.277,-13.489,26.245,23,57,111970.134,-1.016,0.116,13.123,6.836,21.484,23,57,112120.058,-1.016,0.052,13.733,12.512,20.874,23,57,112270.000,-1.017,-0.007,11.902,7.874,23.560,23,57,11243-0.046,-1.002,-0.117,6.165,-3.052,30.396,23,57,11257-0.139,-0.985,-0.095,2.930,-9.827,41.870,23,57,11272-0.189,-1.060,-0.015,2.869,-8.789,48.462,23,57,11288-0.084,-1.034,0.014,3.662,4.028,60.059,23,57,11302-0.093,-1.083,0.026,3.723,18.494,70.923,23,57,11317-0.107,-1.065,0.030,3.906,19.409,77.332,23,57,11332-0.035,-1.035,0.054,5.737,26.794,88.623,23,57,113470.024,-1.072,-0.005,7.385,38.208,98.999,23,57,113620.032,-1.150,-0.036,6.958,37.781,110.901,23,57,113770.083,-1.188,0.026,5.188,34.119,116.333,23,57,113920.175,-1.282,0.215,-0.122,33.936,123.474,23,57,114070.168,-1.442,0.045,-2.747,37.476,131.104,23,57,114220.069,-1.537,-0.074,-6.165,34.241,136.292,23,57,11437-0.177,-1.699,0.109,12.451,7.812,152.344,23,57,114520.057,-1.804,0.641,4.517,-6.165,175.354,23,57,11467-0.086,-2.043,0.660,-3.113,-13.794,187.744,23,57,11482-0.922,-2.469,0.628,3.662,-26.428,204.651,23,57,11498-0.692,-2.296,0.671,11.475,-47.485,211.121,23,57,11512-0.633,-1.919,0.442,10.254,-66.711,207.336,23,57,11527-0.132,-1.687,0.100,6.042,-90.759,201.111,23,57,115430.866,-1.460,-0.035,-18.372,-66.101,192.017,23,57,115570.524,-1.253,0.203,-24.536,-34.912,152.771,23,57,115720.242,-1.083,0.237,-14.465,4.517,119.812,23,57,11587-0.062,-0.574,0.092,3.784,13.550,63.171,23,57,11602-0.641,-0.562,-0.070,49.683,0.916,-17.517,23,57,11617-0.303,-0.404,-0.171,51.147,-20.020,-34.729,23,57,11632-0.115,-0.306,-0.156,28.870,-56.885,-57.068,23,57,11647-0.003,-0.223,0.022,8.301,-64.331,-93.018,23,57,11662-0.052,-0.235,0.164,7.202,-62.927,-113.708,23,57,11677-0.053,-0.265,0.214,9.155,-52.490,-152.893,23,57,11692-0.006,-0.322,0.216,7.690,-41.016,-187.622,23,57,117070.034,-0.372,0.180,5.432,-34.912,-220.703,23,57,117220.065,-0.404,0.169,4.456,-33.081,-236.145,23,57,117370.093,-0.498,0.177,-0.610,-28.320,-264.954,23,57,117520.004,-0.744,0.172,-9.460,-33.936,-284.546,23,57,11767-0.002,-0.939,0.248,-15.320,-47.974,-288.147,23,57,117820.094,-1.001,0.278,-3.845,-70.190,-307.495,23,57,11797-0.034,-1.282,0.203,-14.465,-73.242,-310.181,23,57,118120.536,-1.879,0.357,-16.174,-81.116,-325.684,23,57,118270.873,-2.066,0.401,0.000,-100.525,-330.322,23,57,118420.755,-2.071,0.534,-6.104,-37.842,-339.233,23,57,118570.721,-2.041,0.359,6.470,16.357,-330.444,23,57,118720.776,-2.002,0.235,6.836,24.170,-312.439,23,57,118870.880,-1.870,-0.120,-4.395,-19.104,-245.728,23,57,119021.104,-1.482,-0.102,1.709,-56.396,-181.580,23,57,119171.542,-1.414,-0.300,17.334,-75.134,-146.179,23,57,119321.643,-1.233,-0.329,32.532,-125.732,-44.739,23,57,119471.697,-0.863,0.041,10.986,-114.441,52.917,23,57,119631.747,-0.888,0.286,4.089,-77.148,85.327,23,57,119771.578,-0.972,0.418,-11.780,11.353,130.188,23,57,11992-2.581,-1.716,-0.007,44.983,74.280,56.580,23,57,120080.425,-0.747,0.969,1.587,-62.744,77.515,23,57,120220.655,-0.476,2.021,-114.197,89.294,101.440,23,57,12037-0.106,-2.382,0.712,44.556,138.000,113.892,23,57,120520.041,-1.336,1.188,16.663,145.752,106.812,23,57,120670.276,-1.248,-0.229,34.607,189.392,96.985,23,57,120820.378,-1.141,-0.489,73.730,188.171,82.031,23,57,120970.386,-1.048,-0.798,50.720,154.419,79.224,23,57,121120.069,-1.115,-0.396,32.104,103.210,99.731,23,56,121270.086,-1.026,-0.182,6.836,-12.268,105.652,23,56,121420.064,-1.026,0.364,-22.156,-91.125,111.206,23,57,121570.166,-1.140,0.341,-14.282,-84.961,96.069,23,57,121720.459,-1.072,0.367,-2.930,-60.425,83.008,23,57,121870.413,-1.062,0.312,16.663,14.038,53.833,23,57,122020.303,-1.025,0.153,20.264,64.941,31.860,23,57,122170.179,-1.032,0.061,17.822,77.637,24.902,23,57,122320.124,-1.019,-0.018,13.123,68.298,18.005,23,57,12247-0.095,-0.997,-0.053,6.470,11.841,25.818,23,57,12262-0.051,-1.001,0.045,-0.549,-28.625,31.372,23,56,122770.030,-1.018,0.054,-2.319,-38.208,32.898,23,57,122920.094,-1.021,0.195,0.427,-31.677,30.762,23,57,123070.177,-1.002,0.256,6.836,-1.221,21.790,23,57,123220.145,-1.004,0.153,10.254,12.451,17.395,23,57,123370.073,-1.000,0.119,13.794,20.691,14.282,23,57,12352-0.019,-0.990,0.045,11.658,5.920,17.883,23,57,123670.001,-1.017,0.060,10.376,-21.240,23.438,23,57,123820.054,-1.038,0.101,8.667,-22.522,24.780,23,57,123970.127,-1.051,0.148,9.460,-22.095,22.766,23,57,124120.112,-1.008,0.076,7.568,-13.855,20.386,23,57,12427-0.015,-1.001,-0.080,4.333,-13.367,21.851,23,57,12442-0.033,-0.997,-0.108,-0.122,-20.447,28.503,23,57,12457-0.034,-0.982,-0.007,-2.747,-14.954,37.231,23,57,12472-0.066,-1.007,0.104,-2.258,-7.690,41.565,23,57,12487-0.067,-1.037,0.115,-0.610,7.507,51.331,23,57,12502-0.066,-1.064,0.063,0.305,16.602,62.683,23,57,12517-0.107,-1.087,-0.005,-0.305,18.860,69.397,23,57,12532-0.106,-1.082,0.003,0.000,22.705,82.764,23,57,125470.000,-1.046,0.103,0.244,33.203,95.154,23,57,125620.024,-1.116,0.097,-0.549,39.673,101.257,23,57,12577-0.000,-1.173,0.123,-2.502,43.945,114.319,23,57,125920.075,-1.290,0.286,-5.493,43.884,125.549,23,57,126070.092,-1.366,0.290,-7.812,41.382,138.977,23,57,126220.005,-1.620,0.149,-11.780,42.786,146.301,23,57,12638-0.136,-1.818,0.011,-8.301,37.964,161.438,23,57,12652-0.220,-1.871,0.392,5.493,9.521,186.157,23,57,12667-0.568,-2.290,0.718,-0.244,-4.944,201.477,23,57,12682-0.934,-2.487,0.682,-9.827,-15.503,218.506,23,57,12697-0.655,-2.294,0.597,5.249,-27.100,220.581,23,57,12712-0.649,-1.983,0.320,3.723,-56.763,208.008,23,57,12727-0.186,-1.726,0.002,-1.221,-63.049,203.125,23,57,127421.069,-1.567,-0.165,-35.583,-23.865,193.604,23,57,127570.522,-1.362,0.032,-38.757,48.279,138.916,23,57,127720.408,-0.928,-0.349,-21.606,48.157,115.723,23,57,127870.213,-0.512,-0.004,-23.499,24.902,72.388,23,57,12802-0.463,-0.517,-0.065,14.343,41.016,-15.808,23,57,12817-0.191,-0.453,-0.381,29.236,25.635,-36.194,23,57,12832-0.006,-0.299,-0.418,16.479,-10.925,-52.063,23,57,128470.132,-0.096,-0.277,-7.507,-20.935,-82.581,23,57,128620.044,-0.121,-0.116,-11.658,-21.423,-120.972,23,57,12877-0.054,-0.212,-0.020,-11.536,-18.188,-138.794,23,57,12893-0.002,-0.255,-0.014,-14.221,-8.972,-173.096,23,57,129070.018,-0.314,-0.033,-16.479,-7.935,-204.163,23,57,129220.048,-0.374,-0.018,-18.127,-7.690,-218.384,23,57,129370.027,-0.430,-0.006,-23.010,-6.470,-245.361,23,57,12952-0.032,-0.584,-0.014,-30.334,-15.320,-266.479,23,57,12967-0.113,-0.881,0.002,-33.630,-45.898,-275.208,23,57,12982-0.065,-0.954,0.001,-20.935,-60.425,-282.593,23,57,129970.038,-1.116,-0.035,-18.066,-64.270,-292.297,23,57,130120.359,-1.631,0.042,-3.296,-75.256,-305.481,23,57,130270.699,-1.894,0.179,6.104,-81.604,-314.697,23,57,130420.721,-2.105,0.209,5.615,-48.950,-324.768,23,57,130570.499,-1.963,0.050,14.648,-10.071,-336.182,23,57,130720.582,-2.004,-0.053,21.912,-2.441,-337.891,23,57,130870.781,-2.078,-0.180,26.245,-14.648,-302.368,23,57,131021.113,-1.622,0.012,23.621,-79.956,-240.112,23,57,131171.696,-1.405,-0.006,30.640,-127.197,-176.147,23,57,131321.855,-1.135,0.055,42.114,-124.634,-143.127,23,57,131471.904,-0.776,0.440,53.345,-109.436,-58.289,23,57,131621.859,-0.772,0.615,27.832,-62.622,35.217,23,57,131771.831,-0.838,0.735,15.991,-23.438,70.801,23,57,131930.065,-1.312,0.918,-3.540,68.298,122.253,23,57,13207-3.594,-2.089,-0.778,-13.794,188.354,122.314,23,57,13222-0.230,-1.159,0.011,39.001,251.709,32.959,23,57,132370.086,-1.043,2.501,79.407,-26.062,45.715,23,57,13252-0.084,-2.075,0.796,-142.029,171.936,129.150,23,57,132670.258,-1.189,1.292,62.561,10.681,116.699,23,57,132820.579,-1.376,-0.132,11.475,87.524,106.506,23,57,132970.349,-1.081,-0.502,59.387,218.018,88.013,23,57,13312-0.087,-0.950,-0.604,63.477,197.754,78.674,23,57,133270.119,-1.074,-0.422,36.926,153.931,83.313,23,57,133420.236,-1.003,0.024,10.071,35.950,106.262,23,57,133570.105,-1.052,0.384,-0.488,-95.520,116.882,23,57,133720.256,-1.131,0.365,-14.282,-119.751,118.713,23,57,133870.510,-1.024,0.349,-9.216,-63.171,91.370,23,57,134020.292,-1.027,0.170,7.568,35.889,61.584,23,57,134170.195,-1.050,0.084,16.174,64.758,32.043,23,57,13432-0.021,-1.028,-0.020,19.836,73.059,34.973,23,57,13447-0.040,-0.979,-0.044,16.785,40.161,34.058,23,57,134620.031,-1.020,-0.021,9.521,1.709,37.231,23,57,134770.088,-1.034,0.051,8.362,-11.292,37.720,23,57,134920.157,-1.058,0.183,3.357,-18.616,37.354,23,57,135070.210,-1.006,0.205,5.615,-10.803,34.180,23,57,135220.128,-0.976,0.146,9.033,-5.005,30.334,23,57,135370.009,-1.019,-0.024,9.949,7.324,26.245,23,57,135520.084,-0.994,-0.001,9.277,-4.456,28.137,23,57,135670.095,-0.997,0.022,8.301,-15.259,28.442,23,57,135820.115,-1.030,0.073,7.568,-18.738,28.442,23,57,135970.076,-1.032,0.045,7.751,-19.714,28.015,23,57,136120.060,-1.008,0.026,6.592,-17.090,29.236,23,57,136270.065,-0.976,-0.011,5.249,-14.709,30.884,23,57,136420.032,-0.989,0.040,3.357,-7.202,35.278,23,57,136570.057,-0.995,0.096,4.089,-0.977,41.809,23,57,136720.107,-1.012,0.085,5.188,3.357,44.495,23,57,136870.087,-1.058,0.004,4.822,13.672,48.706,23,57,13702-0.032,-1.132,0.010,4.517,16.418,53.894,23,57,13717-0.039,-1.139,0.045,3.113,13.306,63.538,23,57,137320.029,-1.072,0.207,3.235,9.460,69.031,23,57,137470.069,-1.112,0.162,2.563,19.043,79.590,23,57,137620.041,-1.148,0.106,1.770,33.264,90.027,23,57,137770.007,-1.249,0.068,1.038,36.438,97.107,23,57,13792-0.025,-1.359,0.115,1.526,36.255,113.281,23,57,13807-0.001,-1.543,0.142,3.113,33.142,129.639,23,57,13822-0.065,-1.720,0.135,2.808,32.959,138.123,23,57,13837-0.335,-1.983,0.249,2.136,36.743,155.823,23,57,13852-0.561,-2.226,0.571,15.259,18.433,177.979,23,57,13867-0.973,-2.481,0.686,13.428,-17.090,207.458,23,57,13882-0.901,-2.281,0.642,6.165,-34.302,219.177,23,57,13897-0.442,-1.977,0.268,26.978,-72.510,219.788,23,57,139120.288,-1.738,-0.044,22.888,-114.929,211.182,23,57,139271.239,-1.596,-0.177,15.442,-108.765,213.745,23,57,139420.609,-1.356,0.017,-20.752,-54.016,204.834,23,57,139570.402,-0.853,-0.181,-19.592,-7.751,153.748,23,57,13972-0.085,-0.670,-0.083,-3.235,-5.554,107.544,23,57,13987-0.263,-0.540,-0.160,20.142,-9.949,64.331,23,57,140020.006,-0.272,-0.145,45.471,-43.335,1.221,23,57,140170.087,-0.190,-0.109,33.264,-62.927,-15.991,23,57,140320.153,-0.132,-0.013,9.216,-62.439,-31.494,23,57,140470.141,-0.133,0.083,7.202,-48.218,-71.106,23,57,140620.137,-0.142,0.129,11.169,-25.940,-113.403,23,57,140770.071,-0.183,0.141,12.207,-10.803,-132.690,23,57,140920.055,-0.231,0.088,11.108,14.771,-170.105,23,57,141070.069,-0.256,0.066,13.733,29.419,-205.139,23,57,141220.053,-0.327,0.057,13.428,32.043,-220.520,23,57,14137-0.029,-0.452,0.054,6.897,31.250,-248.047,23,57,14152-0.111,-0.663,0.074,-2.563,15.991,-268.372,23,57,14167-0.086,-0.733,0.139,-9.155,1.038,-273.743,23,57,14182-0.062,-0.843,0.091,-15.320,-42.175,-278.992,23,57,141970.099,-1.268,0.234,-18.616,-75.867,-288.940,23,57,142120.406,-1.635,0.260,-19.531,-104.614,-289.917,23,57,142270.798,-1.698,0.386,-5.432,-120.911,-299.194,23,57,142420.925,-2.006,0.480,-1.282,-86.914,-318.054,23,57,142570.886,-1.957,0.362,11.536,-9.094,-332.764,23,57,142720.760,-1.946,0.213,16.846,21.362,-339.233,23,55,142870.652,-2.001,0.025,12.024,56.702,-322.937,23,57,143020.960,-1.741,-0.143,-1.648,18.311,-261.780,23,57,143171.192,-1.632,-0.232,-3.723,-46.692,-196.533,23,57,143321.514,-1.419,-0.306,9.827,-65.857,-163.147,23,57,143471.661,-0.891,-0.052,41.138,-94.482,-75.195,23,57,143621.649,-0.830,0.215,27.771,-122.375,32.532,23,57,143771.534,-0.903,0.499,12.695,-104.187,74.951,23,57,14392-1.669,-1.542,0.123,-1.953,-28.320,126.404,23,57,14407-0.394,-1.055,0.533,32.654,77.637,66.345,23,57,144220.301,-0.588,1.575,56.091,34.180,42.419,23,57,14438-0.208,-2.114,1.086,-63.538,25.696,84.045,23,57,144520.180,-1.555,0.963,-5.005,103.088,125.488,23,57,144670.359,-1.360,0.620,30.884,96.252,119.202,23,57,144830.642,-1.272,-0.597,26.306,145.752,113.708,23,57,144970.230,-0.911,-0.492,59.387,235.107,84.961,23,57,14512-0.054,-0.861,-0.488,44.556,165.894,79.956,23,57,14527-0.014,-1.000,-0.105,26.550,124.390,78.979,23,57,145420.016,-1.115,0.165,-1.648,2.869,104.675,23,57,145570.169,-1.053,0.515,-13.306,-118.469,116.577,23,57,145720.437,-1.070,0.513,-19.592,-121.277,114.502,23,57,145870.490,-1.080,0.171,3.967,-24.658,77.942,23,57,146020.198,-0.995,-0.059,23.010,61.829,42.480,23,57,146170.149,-1.003,-0.023,20.874,71.838,34.363,23,57,14632-0.102,-1.009,-0.023,12.573,60.791,27.588,23,57,146470.021,-1.000,-0.015,9.644,26.062,30.334,23,57,146620.091,-1.018,-0.011,3.906,-9.277,32.532,23,57,146770.097,-1.032,0.117,1.770,-20.874,32.776,23,57,146920.168,-1.028,0.205,0.122,-24.231,30.457,23,57,147070.188,-1.023,0.186,5.554,-5.554,21.790,23,57,147220.112,-0.994,0.099,9.155,3.845,17.212,23,57,147370.005,-0.988,-0.001,13.000,17.395,11.169,23,57,14752-0.021,-1.000,0.021,11.963,3.906,13.672,23,57,147670.027,-1.013,0.021,10.925,-7.080,19.165,23,57,147820.122,-1.027,0.073,8.972,-18.799,20.325,23,57,147970.139,-1.030,0.099,8.972,-14.709,19.165,23,57,148120.115,-1.031,0.089,10.010,-4.211,15.564,23,57,148270.038,-1.017,0.056,10.132,-3.235,14.893,23,56,148420.033,-1.001,0.022,10.193,-9.033,16.541,23,56,148570.046,-0.985,-0.026,9.949,-10.498,19.836,23,57,14872-0.017,-0.976,-0.064,9.094,-6.592,21.362,23,57,14887-0.147,-1.003,-0.106,6.897,3.052,26.611,23,57,14902-0.144,-1.058,-0.043,3.540,5.249,39.001,23,57,14917-0.159,-1.077,-0.013,1.465,8.911,52.673,23,57,14932-0.168,-1.080,0.011,0.610,11.719,59.570,23,57,14947-0.060,-1.054,0.053,1.404,15.198,74.341,23,57,14962-0.012,-1.064,0.044,3.845,26.306,87.341,23,57,14977-0.008,-1.135,0.001,4.517,33.752,93.140,23,57,149930.066,-1.225,0.039,4.761,38.208,105.713,23,57,150070.151,-1.318,0.199,4.395,32.166,117.493,23,56,150220.250,-1.442,0.090,2.075,31.311,126.160,23,56,15037-0.085,-1.704,-0.020,-2.869,33.936,131.653,23,56,15052-0.134,-1.736,0.316,-0.488,27.954,144.592,23,56,15067-0.018,-1.799,0.528,10.925,6.653,164.124,23,56,15082-0.489,-2.366,0.536,6.653,0.549,176.453,23,56,15097-0.828,-2.431,0.575,-7.446,-18.188,204.224,23,56,15112-1.014,-2.308,0.635,18.372,-40.466,214.905,23,56,15127-0.850,-2.028,0.389,14.648,-60.608,221.191,23,56,151420.691,-1.565,-0.081,12.390,-112.244,210.266,23,56,151571.047,-1.466,-0.062,-3.418,-104.248,211.182,23,57,151720.706,-1.358,0.087,-32.776,-25.757,175.842,23,57,151870.310,-0.932,-0.160,-26.978,2.258,148.926,23,57,15202-0.396,-0.539,0.101,-4.272,15.259,106.384,23,57,15217-0.587,-0.517,-0.041,13.977,26.489,27.954,23,57,15232-0.208,-0.357,-0.129,34.424,19.165,-9.949,23,57,152470.033,-0.201,-0.137,25.513,-2.258,-39.734,23,57,152620.046,-0.155,-0.023,3.174,-10.986,-69.763,23,57,15277-0.009,-0.156,0.043,-2.075,-13.672,-109.924,23,57,15292-0.069,-0.200,0.136,-0.305,-15.320,-130.310,23,57,15307-0.025,-0.257,0.110,-1.221,-15.381,-166.382,23,57,153220.029,-0.281,0.089,-4.089,-16.663,-197.754,23,57,153370.040,-0.356,0.108,-5.676,-19.043,-212.463,23,57,15352-0.007,-0.500,0.149,-9.033,-26.489,-239.990,23,57,15367-0.040,-0.754,0.143,-15.381,-32.959,-263.184,23,57,15382-0.003,-0.791,0.198,-20.447,-39.917,-270.447,23,57,153970.052,-1.005,0.198,-21.179,-63.660,-283.691,23,57,154120.123,-1.336,0.299,-10.132,-69.885,-300.842,23,57,154270.395,-1.651,0.354,-19.165,-76.294,-302.612,23,57,154420.875,-1.943,0.447,-12.634,-84.839,-308.960,23,57,154570.766,-2.068,0.514,-3.845,-59.875,-332.336,23,57,154720.760,-2.067,0.214,-4.883,25.879,-342.163,23,57,154870.703,-1.989,0.069,-3.296,57.129,-340.027,23,57,155020.769,-1.856,0.057,-15.137,61.951,-304.138,23,57,155170.941,-1.546,-0.232,-22.583,30.579,-242.798,23,57,155321.230,-1.515,-0.405,-2.930,-16.296,-182.861,23,57,155481.469,-1.245,-0.368,6.470,-49.500,-141.052,23,57,155621.605,-0.872,0.036,26.428,-99.365,-40.527,23,57,155771.684,-0.837,0.162,11.353,-101.807,49.072,23,57,155921.661,-0.956,0.212,1.465,-76.355,82.458,23,57,15607-1.245,-1.788,0.109,-8.362,-9.766,132.263,23,57,15622-0.982,-1.179,0.648,39.429,62.561,93.628,23,57,156370.737,-0.555,1.261,66.406,-13.306,62.683,23,57,156520.085,-2.153,0.599,-46.570,-17.090,92.712,23,57,156670.048,-1.425,0.892,-0.061,80.505,139.404,23,57,156820.407,-1.228,0.553,20.325,54.077,120.178,23,57,156970.539,-1.258,-0.220,17.151,125.183,107.605,23,57,157120.595,-1.153,-0.235,66.101,147.705,92.773,23,57,157270.203,-1.046,-0.334,53.955,132.690,84.290,23,57,157420.136,-0.934,-0.146,37.170,116.394,79.773,23,57,157570.063,-1.075,0.126,8.423,29.541,86.243,23,57,157720.157,-1.068,0.302,-3.113,-58.289,94.971,23,57,157870.265,-1.054,0.309,-4.883,-61.035,82.886,23,57,158020.316,-1.043,0.240,6.714,-43.091,72.327,23,57,158170.268,-1.038,0.100,17.029,15.991,48.706,23,57,158320.208,-1.030,0.063,19.714,51.086,30.823,23,57,158480.047,-1.011,-0.066,19.775,58.411,25.146,23,57,15862-0.086,-1.001,-0.040,17.578,39.673,22.095,23,57,158770.019,-1.010,0.041,9.583,7.141,27.405,23,57,158930.050,-1.015,0.095,7.507,-3.357,28.809,23,57,159070.079,-1.022,0.180,7.324,-7.751,30.212,23,57,159220.106,-1.017,0.147,9.888,2.686,28.320,23,57,159370.096,-1.002,0.100,15.015,18.616,24.780,23,57,159520.038,-0.977,0.003,17.517,25.574,22.705,23,57,15967-0.034,-0.979,0.016,16.663,21.973,23.804,23,57,159820.004,-1.000,0.005,15.503,4.395,29.175,23,57,159970.098,-1.021,0.026,14.954,-0.488,31.128,23,57,160120.158,-1.023,0.075,15.381,-0.671,32.410,23,57,160270.121,-1.032,0.077,15.137,8.850,29.602,23,57,160420.104,-1.043,0.058,14.771,7.629,29.053,23,57,160570.147,-1.018,0.053,14.709,3.906,29.297,23,57,160720.113,-1.029,0.067,15.442,-4.333,28.198,23,57,160870.104,-1.050,0.021,15.747,-7.874,28.687,23,57,161020.007,-1.042,-0.054,15.564,-7.446,28.992,23,57,16117-0.057,-1.073,-0.079,15.198,-7.629,34.180,23,57,16132-0.122,-1.092,-0.052,14.832,-7.385,43.091,23,57,16147-0.120,-1.106,-0.039,14.465,-7.263,49.438,23,57,16162-0.053,-1.111,-0.016,14.160,-4.272,63.843,23,57,161770.006,-1.178,0.121,13.000,5.188,77.026,23,57,161930.007,-1.232,0.066,11.780,14.954,90.332,23,57,162070.059,-1.273,0.038,12.878,18.311,96.375,23,57,162220.073,-1.353,0.094,15.991,16.846,109.375,23,57,162380.104,-1.576,0.073,15.991,18.616,121.399,23,57,16252-0.194,-1.704,0.075,14.954,20.447,128.540,23,57,16267-0.237,-1.749,0.299,16.846,15.015,144.653,23,57,16282-0.305,-2.018,0.571,22.156,0.732,167.419,23,54,16297-0.713,-2.281,0.620,5.066,-11.902,194.702,23,57,16312-1.011,-2.353,0.726,7.751,-19.714,206.726,23,57,16327-0.449,-1.991,0.526,26.123,-87.585,207.764,23,57,163420.162,-1.746,0.434,14.404,-85.999,215.088,23,57,163570.912,-1.580,0.136,-24.902,-41.931,205.627,23,57,163720.521,-1.617,0.159,-18.921,19.409,156.555,23,57,163870.194,-1.070,-0.092,-2.563,26.917,99.915,23,57,16402-0.358,-0.796,0.085,15.381,23.804,53.772,23,57,16417-0.514,-0.590,0.093,16.479,0.732,-8.850,23,57,16432-0.305,-0.500,-0.113,4.456,-43.091,-32.959,23,57,16448-0.189,-0.466,-0.104,-2.869,-55.664,-49.133,23,57,16462-0.074,-0.364,-0.054,-8.606,-77.942,-86.853,23,57,16477-0.080,-0.232,0.158,-19.836,-97.778,-125.183,23,57,16492-0.102,-0.311,0.258,-24.902,-96.008,-144.531,23,57,165070.009,-0.374,0.236,-28.564,-84.167,-180.969,23,57,165220.069,-0.400,0.225,-28.931,-74.402,-216.187,23,57,165370.060,-0.475,0.241,-29.480,-60.364,-248.291,23,57,165520.070,-0.577,0.237,-28.381,-50.964,-261.719,23,57,165670.007,-0.857,0.205,-24.048,-53.284,-278.564,23,57,165820.154,-0.909,0.188,-12.939,-56.213,-300.659,23,57,165970.094,-0.992,0.126,-18.433,-55.237,-305.481,23,57,166120.178,-1.306,0.218,-29.114,-73.608,-305.786,23,57,166270.753,-1.697,0.314,-23.743,-88.562,-312.622,23,57,166420.746,-1.717,0.380,-21.606,-51.819,-334.534,23,57,166570.751,-1.939,0.285,-15.625,19.104,-345.581,23,57,166720.868,-1.941,0.036,-13.611,44.861,-344.238,23,57,166870.841,-1.977,-0.127,-25.391,54.077,-313.721,23,57,167020.793,-1.943,-0.240,-31.128,-0.366,-249.084,23,57,167171.038,-1.695,-0.453,-22.888,-22.034,-218.689,23,57,167321.302,-1.625,-0.606,11.108,-90.088,-143.372,23,57,167471.617,-1.357,-0.390,36.438,-128.662,-48.828,23,57,167621.776,-0.996,-0.144,35.645,-129.089,-3.418,23,57,167771.777,-0.938,0.024,20.325,-90.088,71.655,23,57,167921.796,-0.937,0.248,3.723,-21.118,123.291,23,57,168071.315,-1.132,0.516,0.793,74.036,141.907,23,57,16822-2.025,-1.556,0.546,25.513,109.985,82.031,23,57,16837-1.327,-1.305,0.844,49.072,-6.104,32.227,23,57,168520.958,-0.945,1.697,-119.751,210.083,107.910,23,57,16867-0.120,-2.373,0.353,-13.000,179.749,120.911,23,57,16882-0.051,-1.228,0.961,62.134,33.813,103.333,23,57,168970.501,-1.254,0.344,33.875,195.679,77.698,23,57,169120.456,-1.374,-0.669,73.975,175.476,76.843,23,57,169270.469,-1.215,-0.497,64.148,133.728,89.294,23,57,169420.035,-0.952,-0.402,15.869,42.969,97.473,23,57,169580.205,-0.952,0.095,-8.972,-52.612,113.464,23,57,169720.089,-1.117,0.480,-8.789,-83.679,111.816,23,57,169870.250,-1.099,0.426,0.488,-56.824,86.792,23,57,170020.461,-1.041,0.331,12.817,24.475,58.228,23,57,170170.291,-1.001,0.159,15.686,51.880,47.058,23,57,170320.212,-1.033,0.135,13.428,66.223,34.851,23,57,170470.133,-1.047,0.072,16.785,56.274,28.564,23,57,17062-0.074,-0.971,0.023,10.193,15.259,32.288,23,57,17077-0.078,-0.983,0.119,7.141,-2.502,35.095,23,57,170920.151,-1.015,0.104,1.587,-7.751,35.095,23,57,171070.175,-1.021,0.156,2.197,1.282,31.006,23,57,171220.149,-1.004,0.250,4.272,5.432,27.832,23,57,171370.164,-1.000,0.241,9.216,18.616,20.752,23,57,171520.105,-0.987,0.135,10.254,20.142,18.250,23,57,17167-0.001,-0.999,0.135,10.132,10.376,23.254,23,57,171820.025,-1.016,0.141,9.216,-5.920,25.391,23,57,171970.089,-1.044,0.115,8.911,-15.747,26.978,23,57,172120.122,-1.018,0.141,7.568,-12.207,26.184,23,57,172270.057,-1.027,0.060,5.920,-10.193,26.184,23,57,172420.036,-1.004,0.034,2.991,-11.902,29.297,23,57,172570.024,-0.996,0.063,1.221,-9.949,35.034,23,57,172720.002,-1.013,0.100,1.526,-7.263,38.574,23,57,17287-0.008,-1.027,0.123,2.747,-1.038,47.058,23,57,17302-0.023,-1.060,0.120,3.723,5.249,56.763,23,57,17317-0.050,-1.105,0.066,2.319,9.888,69.031,23,57,17332-0.065,-1.133,0.070,1.709,10.864,75.806,23,57,17348-0.042,-1.096,0.189,0.305,18.433,88.257,23,57,173620.086,-1.112,0.321,-1.648,36.255,99.548,23,57,173770.072,-1.236,0.245,-2.441,44.006,106.323,23,57,173920.074,-1.292,0.220,-2.686,47.546,120.850,23,57,174070.029,-1.385,0.192,-3.479,43.030,134.399,23,57,174220.032,-1.664,0.146,-5.432,44.739,150.146,23,57,17437-0.198,-1.827,0.109,-6.775,39.795,159.241,23,57,17452-0.364,-1.896,0.347,2.869,12.512,183.838,23,57,17467-0.410,-2.173,0.793,-9.033,-10.742,210.449,23,57,17482-1.182,-2.598,0.585,-18.250,-16.479,219.910,23,57,17497-0.961,-2.296,0.560,5.066,-23.682,214.172,23,57,17512-0.481,-2.020,0.200,1.160,-56.396,208.679,23,57,175270.814,-1.710,-0.162,-7.080,-47.302,211.487,23,57,175421.127,-1.719,-0.184,-40.039,11.292,195.129,23,57,175570.348,-1.414,0.101,-32.959,53.406,139.099,23,57,175720.235,-0.851,0.127,-30.396,44.128,99.609,23,57,17587-0.377,-0.712,-0.072,-15.442,61.157,46.997,23,57,17602-0.502,-0.691,-0.272,23.315,54.138,-25.452,23,57,17617-0.094,-0.430,-0.402,7.141,7.446,-42.969,23,57,176320.043,-0.261,-0.265,-6.226,-2.502,-58.289,23,57,176470.025,-0.250,-0.227,-10.193,-8.850,-98.938,23,57,17662-0.032,-0.246,-0.130,-5.859,-13.916,-137.634,23,57,17677-0.017,-0.303,-0.089,-8.118,-10.681,-172.241,23,57,17692-0.002,-0.336,-0.082,-13.000,-8.667,-189.392,23,57,177070.036,-0.390,-0.077,-14.648,-7.996,-221.191,23,57,177220.022,-0.450,-0.068,-18.616,-8.484,-248.596,23,57,17737-0.038,-0.595,-0.046,-22.278,-10.132,-260.498,23,57,17752-0.101,-0.722,-0.026,-27.405,-28.992,-277.344,23,57,17767-0.104,-0.963,-0.029,-16.174,-64.453,-287.415,23,55,177820.000,-1.054,0.023,-13.245,-76.477,-294.434,23,57,177970.084,-1.265,0.095,-3.784,-82.947,-306.091,23,57,178120.570,-1.663,0.161,14.221,-99.365,-325.195,23,57,178270.696,-1.848,0.297,22.461,-65.552,-346.619,23,57,178420.799,-1.962,0.240,27.405,-36.743,-353.088,23,57,178570.991,-1.965,0.225,26.672,9.644,-350.708,23,57,178720.993,-2.203,0.124,5.432,0.916,-309.143,23,57,178871.101,-1.903,0.093,-1.160,-25.269,-276.550,23,57,179021.262,-1.726,0.082,6.470,-57.983,-214.111,23,57,179171.729,-1.580,-0.154,34.729,-90.454,-128.845,23,57,179322.001,-1.070,0.142,43.457,-74.585,-34.729,23,57,179471.984,-0.944,0.244,30.396,-54.749,11.292,23,57,179621.946,-0.865,0.416,9.338,-0.610,88.440,23,57,179771.880,-0.948,0.530,-15.808,73.914,142.944,23,57,17992-2.830,-2.099,-0.198,-14.160,160.889,124.573,23,57,18007-3.643,-2.017,-1.024,106.445,105.103,24.231,23,57,180221.268,0.158,1.943,-89.722,-8.850,104.187,23,57,18037-0.481,-2.699,0.997,-147.400,176.941,127.930,23,57,180520.077,-2.286,0.826,48.157,43.640,137.939,23,57,180670.417,-1.028,0.872,13.794,159.058,112.000,23,57,180820.696,-1.267,-0.456,54.504,218.628,91.125,23,57,180970.591,-1.236,-0.626,81.848,199.524,83.496,23,57,181120.217,-1.089,-0.388,31.433,129.700,95.154,23,57,181270.157,-0.977,-0.239,0.488,-16.174,115.417,23,57,181420.032,-1.094,0.192,-12.695,-70.862,121.521,23,57,181570.082,-1.060,0.294,-4.700,-84.839,107.849,23,57,181720.503,-1.025,0.444,4.211,1.953,77.393,23,57,181870.398,-1.099,0.070,7.446,32.898,61.951,23,57,182020.313,-1.074,0.067,11.841,38.208,47.424,23,57,182170.179,-1.004,0.104,12.939,43.213,35.156,23,57,182320.060,-1.005,0.001,8.972,18.677,31.616,23,57,182470.027,-1.011,0.038,7.935,4.456,32.654,23,57,182620.144,-1.010,0.089,3.906,-3.357,32.043,23,57,182770.128,-1.027,0.070,3.479,-4.089,30.823,23,57,182920.130,-1.002,0.180,5.554,-4.333,29.480,23,54,183070.155,-0.993,0.190,10.437,5.188,24.353,23,57,183220.121,-0.974,0.087,12.695,12.756,21.179,23,57,183370.024,-0.998,0.020,11.475,8.972,25.818,23,57,183520.022,-1.018,0.021,7.812,-4.639,27.893,23,57,183670.102,-1.030,0.052,6.104,-16.174,29.419,23,57,183820.125,-1.038,0.091,5.188,-18.433,29.358,23,57,183970.115,-1.004,0.097,4.944,-18.555,29.724,23,57,184120.098,-0.992,0.072,4.578,-15.015,31.189,23,57,184270.060,-1.001,0.008,4.272,-11.597,36.133,23,57,184420.002,-1.034,0.046,4.456,-10.925,39.917,23,57,184570.005,-1.028,0.039,4.761,-7.263,48.157,23,57,18472-0.029,-1.058,-0.010,2.686,0.305,59.448,23,56,18487-0.135,-1.110,0.004,1.831,6.897,75.378,23,57,18502-0.105,-1.107,0.052,2.625,12.207,82.703,23,57,185170.020,-1.103,0.181,2.563,26.428,96.741,23,57,185320.102,-1.245,0.246,0.183,41.748,108.765,23,57,185470.064,-1.317,0.218,1.221,42.236,116.455,23,57,185620.074,-1.362,0.155,2.075,37.781,130.249,23,57,185770.030,-1.486,0.155,0.061,36.926,145.569,23,57,18592-0.189,-1.859,0.081,0.000,34.973,163.818,23,57,18607-0.361,-1.949,0.314,11.841,6.714,189.880,23,57,18623-0.475,-2.264,0.811,7.935,-7.324,205.139,23,57,18637-1.182,-2.747,0.648,-2.380,-39.368,232.239,23,57,18652-0.856,-2.332,0.545,22.461,-59.814,227.051,23,57,18667-0.558,-2.026,0.167,15.991,-84.900,208.740,23,57,186820.257,-1.811,-0.134,3.296,-98.450,216.431,23,57,186971.080,-1.636,-0.083,-39.062,-37.842,199.768,23,57,187120.279,-1.328,0.206,-28.564,24.597,134.583,23,56,187270.259,-0.741,-0.017,-10.010,13.916,116.638,23,56,18742-0.187,-0.557,0.175,-4.089,27.710,44.678,23,56,18757-0.487,-0.552,-0.153,41.809,22.522,-32.349,23,56,18772-0.086,-0.326,-0.249,41.016,1.221,-43.335,23,56,187870.058,-0.207,-0.217,15.442,-24.109,-65.491,23,56,188020.101,-0.166,-0.090,5.432,-26.367,-103.027,23,56,188170.025,-0.206,0.032,9.216,-29.236,-123.291,23,56,188320.009,-0.233,0.093,12.146,-29.053,-159.668,23,56,188470.008,-0.301,0.135,11.658,-24.536,-192.322,23,56,188620.030,-0.360,0.142,10.986,-26.672,-222.168,23,56,188770.039,-0.395,0.139,9.583,-28.381,-236.023,23,56,188920.036,-0.502,0.171,6.531,-29.663,-261.963,23,57,189070.018,-0.723,0.168,0.793,-37.292,-279.541,23,57,189230.049,-0.791,0.218,-2.747,-47.852,-286.499,23,57,189370.073,-0.824,0.297,-1.831,-56.152,-309.998,23,57,18952-0.004,-1.177,0.253,3.540,-64.819,-320.251,23,57,189670.182,-1.487,0.359,-2.808,-74.402,-320.557,23,57,189820.496,-1.807,0.411,1.038,-88.989,-327.393,23,57,189970.949,-2.033,0.430,9.338,-58.899,-347.717,23,57,190120.891,-2.087,0.332,13.916,10.498,-346.680,23,57,190270.881,-2.088,0.132,15.869,28.137,-333.923,23,57,190420.914,-1.994,0.009,3.784,-6.470,-276.917,23,57,190571.206,-1.691,-0.019,1.831,-48.096,-208.618,23,57,190721.590,-1.583,-0.187,14.282,-53.345,-176.025,23,57,190871.743,-1.396,-0.220,40.161,-83.801,-84.717,23,57,191021.875,-0.936,0.004,21.484,-90.759,23.560,23,57,191171.929,-0.821,0.316,11.597,-67.322,65.002,23,57,191321.951,-0.848,0.323,-7.385,3.296,126.465,23,57,19147-1.684,-1.911,0.048,41.626,94.543,77.637,23,57,19162-0.264,-1.113,0.561,77.515,12.329,47.729,23,57,191770.913,-0.364,2.137,-108.948,17.883,109.802,23,57,19192-0.490,-2.634,0.880,17.822,99.426,148.315,23,57,192070.424,-1.519,0.968,31.555,145.386,128.296,23,57,192220.746,-1.510,-0.292,45.959,209.534,120.544,23,57,192370.633,-1.217,-0.838,84.839,219.971,97.351,23,57,192520.285,-0.962,-0.583,35.217,130.371,105.530,23,57,19267-0.033,-0.958,-0.447,14.160,81.421,114.441,23,57,192820.128,-0.941,-0.181,-6.226,-71.106,131.104,23,57,192970.036,-1.048,0.415,-18.677,-120.361,133.362,23,57,193120.561,-1.053,0.615,-8.850,-74.524,115.295,23,57,193270.717,-1.056,0.380,13.855,55.603,68.176,23,57,193420.351,-1.106,-0.046,15.991,59.204,49.316,23,57,193570.197,-1.003,0.146,16.541,51.270,39.795,23,57,193720.130,-1.001,0.092,16.052,47.607,35.034,23,57,19387-0.047,-1.014,-0.046,14.526,15.869,36.438,23,57,194020.110,-1.004,-0.034,7.019,-4.395,35.645,23,57,194170.143,-1.012,-0.000,5.493,-4.578,33.936,23,57,194320.141,-1.011,0.050,4.089,-7.568,30.762,23,57,194470.148,-1.033,0.133,6.042,-3.296,27.283,23,57,194620.160,-1.023,0.106,7.690,-0.793,24.963,23,57,194770.132,-0.989,0.075,8.667,1.648,22.766,23,57,19492-0.001,-0.995,0.002,5.859,-8.972,27.954,23,57,195070.081,-1.033,0.022,6.958,-17.944,30.151,23,57,195220.109,-1.005,0.040,6.836,-26.001,31.006,23,57,195370.156,-1.048,0.075,5.188,-21.118,31.311,23,57,195520.102,-1.037,0.032,4.761,-16.663,30.518,23,57,195670.052,-1.027,-0.002,2.686,-13.489,33.264,23,57,195820.084,-0.986,0.030,3.845,-10.498,38.086,23,57,195970.149,-0.987,0.156,5.554,-1.648,41.199,23,57,196120.138,-1.091,0.102,5.920,-0.244,42.236,23,57,196270.085,-1.072,0.127,3.479,-2.625,47.852,23,57,196420.025,-1.134,-0.010,1.465,-0.610,57.373,23,57,19657-0.097,-1.094,0.055,1.038,1.526,64.880,23,57,19672-0.028,-1.086,0.102,2.197,14.709,79.956,23,57,196870.023,-1.125,0.164,2.991,31.311,93.994,23,57,197020.029,-1.242,0.094,3.540,40.771,108.948,23,57,19717-0.010,-1.303,0.074,5.432,41.016,117.310,23,57,197320.018,-1.393,0.105,7.812,38.696,132.812,23,57,19747-0.029,-1.499,0.186,11.292,33.386,149.719,23,57,19762-0.173,-1.818,0.230,11.414,33.752,159.424,23,57,19777-0.310,-2.008,0.270,12.268,25.879,179.688,23,57,19792-0.652,-2.167,0.558,17.944,-20.752,208.008,23,57,19807-1.408,-2.687,0.752,10.803,-49.988,224.365,23,57,19822-1.251,-2.544,0.677,32.471,-69.336,224.915,23,57,19837-0.166,-1.908,0.396,23.743,-78.674,218.201,23,57,198520.409,-1.778,-0.010,-0.305,-87.158,213.989,23,57,198670.498,-1.611,-0.118,-11.230,-87.219,200.562,23,57,198820.524,-1.457,-0.032,-25.818,-27.283,155.518,23,57,198970.726,-1.036,-0.462,-3.540,-29.541,118.103,23,57,199120.088,-0.599,0.224,-22.156,-29.846,87.585,23,57,19927-0.233,-0.706,-0.039,21.790,9.155,-6.531,23,57,19942-0.194,-0.571,-0.314,50.049,-35.889,-38.879,23,57,199570.034,-0.193,-0.234,21.179,-63.965,-60.242,23,57,199720.152,-0.104,-0.158,3.967,-57.617,-76.660,23,57,199880.208,-0.104,-0.035,-5.493,-37.354,-116.455,23,57,200020.112,-0.167,0.054,-0.122,-24.963,-157.898,23,57,200170.042,-0.248,0.102,0.122,-14.526,-177.734,23,57,200320.043,-0.296,0.093,-0.366,8.850,-214.722,23,57,200470.067,-0.377,0.029,1.587,22.278,-245.483,23,57,200620.046,-0.460,0.002,0.916,24.536,-275.757,23,57,200770.020,-0.565,-0.003,-3.540,19.897,-284.058,23,57,20092-0.020,-0.703,-0.014,-11.292,-5.737,-301.331,23,57,201070.009,-0.768,0.094,-20.508,-27.527,-320.496,23,57,20122-0.090,-1.130,0.089,-20.203,-42.603,-324.341,23,57,20137-0.093,-1.318,0.098,-24.170,-80.383,-325.317,23,57,201520.488,-1.830,0.319,-17.273,-94.666,-334.045,23,57,201671.072,-2.228,0.319,-2.686,-87.463,-348.083,23,57,201821.016,-2.230,0.274,10.010,-14.160,-361.328,23,54,201971.158,-2.289,0.125,17.822,34.912,-335.449,23,57,202121.033,-2.024,-0.125,9.888,-13.733,-266.907,23,57,202271.211,-1.774,-0.155,6.592,-46.143,-227.173,23,57,202421.576,-1.509,-0.202,21.790,-72.266,-151.123,23,57,202571.956,-1.213,-0.106,35.706,-80.811,-65.796,23,57,202721.850,-0.941,0.157,30.029,-71.411,-18.921,23,57,202871.856,-0.846,0.306,18.066,-29.297,64.209,23,57,20302-1.388,-1.664,0.369,-0.366,25.940,123.596,23,52,20317-4.419,-2.032,-0.359,-11.780,68.237,141.663,23,57,203320.982,-0.480,1.009,76.416,133.972,22.400,23,57,20347-0.372,-2.613,1.743,-1.038,-88.501,75.867,23,57,20362-0.407,-3.013,0.680,-170.166,113.953,167.603,23,57,203770.651,-1.184,0.734,57.617,38.818,156.250,23,57,203921.018,-1.208,-1.009,20.996,146.851,122.986,23,57,204080.440,-0.966,-0.517,84.595,268.555,85.144,23,57,204220.023,-0.932,-0.211,75.317,236.267,83.130,23,57,204370.051,-0.965,-0.233,18.188,131.653,96.008,23,57,20452-0.019,-1.130,0.400,-12.085,-49.072,117.615,23,57,204670.091,-1.043,0.565,-19.836,-129.272,127.441,23,57,204820.842,-1.052,0.408,-6.592,-91.736,105.469,23,57,204970.342,-1.105,0.049,14.160,27.954,54.443,23,57,205120.222,-1.043,0.133,14.893,45.593,33.630,23,57,205270.058,-1.014,0.048,18.250,48.950,28.687,23,57,20542-0.108,-1.008,-0.026,17.212,44.678,20.325,23,57,205570.029,-1.007,0.002,13.062,2.258,27.588,23,57,205720.039,-1.016,0.031,10.437,-15.503,29.968,23,57,205870.076,-1.017,0.059,4.028,-20.447,30.518,23,57,206020.154,-1.001,0.163,3.784,-17.456,29.236,23,57,206170.159,-0.978,0.178,5.249,-11.658,27.100,23,57,206320.025,-0.973,0.042,9.277,9.705,20.447,23,57,20647-0.016,-0.989,0.036,9.949,13.123,20.447,23,57,206620.034,-1.017,0.066,9.583,3.662,23.376,23,57,206770.095,-1.046,0.060,8.606,-10.559,28.198,23,57,206920.074,-1.032,0.005,7.202,-12.268,28.687,23,57,207070.029,-1.015,-0.011,5.249,-7.385,29.663,23,57,207220.035,-0.986,-0.057,1.038,-7.263,30.762,23,57,207370.019,-1.000,0.046,-1.465,-5.188,34.058,23,57,207530.012,-1.042,0.164,0.854,-5.920,39.856,23,57,207670.066,-1.085,0.149,2.686,-5.005,42.725,23,57,20782-0.019,-1.059,-0.016,4.883,0.122,47.058,23,57,20797-0.116,-1.090,-0.053,3.967,2.258,55.237,23,57,20812-0.130,-1.128,-0.007,2.930,5.310,61.279,23,57,20827-0.050,-1.123,0.162,2.563,10.437,76.538,23,57,208420.095,-1.147,0.317,4.150,17.700,89.600,23,57,208570.099,-1.202,0.204,1.587,33.386,100.830,23,57,208720.031,-1.304,0.071,2.136,39.551,107.361,23,57,208870.015,-1.402,0.060,4.333,41.992,121.704,23,57,209020.056,-1.469,0.086,5.188,36.255,135.132,23,57,20917-0.099,-1.781,0.094,4.333,36.072,142.334,23,57,20932-0.294,-1.889,0.303,3.906,32.166,158.142,23,57,20947-0.375,-2.039,0.766,15.930,6.409,180.542,23,57,20962-0.860,-2.427,0.793,14.893,-18.555,208.435,23,57,20977-1.027,-2.423,0.551,-3.479,-30.518,222.168,23,57,20992-0.665,-2.084,0.323,22.949,-50.476,220.581,23,57,21008-0.117,-1.850,0.083,21.179,-93.384,215.210,23,57,210221.060,-1.622,-0.181,10.742,-97.717,215.820,23,57,210370.596,-1.434,0.105,-27.405,-62.195,212.402,23,57,210520.440,-1.288,0.001,-42.969,9.338,156.921,23,57,210670.268,-0.744,0.160,-26.306,14.709,131.470,23,57,21082-0.498,-0.663,-0.115,-25.146,26.062,80.933,23,57,21097-0.319,-0.581,-0.168,27.588,27.832,-12.573,23,57,211120.021,-0.315,-0.197,29.419,8.118,-27.710,23,57,211270.125,-0.222,-0.088,8.667,-21.606,-48.340,23,57,211420.058,-0.238,-0.016,-3.967,-21.362,-85.754,23,57,211570.032,-0.242,0.057,-0.488,-22.827,-106.934,23,57,211730.035,-0.291,0.118,5.066,-26.855,-144.897,23,57,211870.049,-0.343,0.117,2.075,-20.569,-178.101,23,57,212020.046,-0.362,0.106,1.587,-15.808,-210.327,23,57,212170.019,-0.420,0.126,3.296,-16.418,-225.403,23,57,21232-0.001,-0.536,0.172,2.625,-21.240,-252.991,23,57,21247-0.003,-0.730,0.179,-3.357,-26.550,-274.902,23,57,212620.086,-0.730,0.205,-7.019,-33.508,-281.494,23,57,212770.077,-0.829,0.313,-10.620,-50.354,-299.622,23,57,21292-0.006,-1.245,0.335,-10.559,-49.744,-324.219,23,57,213070.080,-1.384,0.373,-7.141,-64.087,-329.407,23,57,213220.688,-1.766,0.506,-12.817,-70.129,-333.069,23,57,213371.242,-2.208,0.271,-18.982,-46.021,-340.576,23,57,213521.276,-2.244,0.134,-5.005,3.906,-364.441,23,57,213671.238,-2.259,-0.039,-6.592,40.222,-357.788,23,57,213831.254,-1.760,-0.400,-20.752,61.218,-299.561,23,57,213971.560,-1.631,-0.575,-22.034,-11.780,-222.290,23,57,214121.752,-1.521,-0.483,-12.146,-39.978,-130.737,23,57,214271.891,-1.155,-0.208,22.217,-83.740,-84.961,23,57,214421.844,-0.922,0.073,30.701,-88.745,5.310,23,57,214571.828,-0.894,0.158,21.484,-61.462,87.646,23,57,214721.679,-0.941,0.384,15.503,-30.396,114.319,23,57,21487-5.014,-1.960,-0.038,-1.648,45.715,147.766,23,57,215021.239,-0.268,1.143,74.341,109.619,5.981,23,57,215170.968,-0.513,2.465,99.365,-49.072,28.564,23,57,21532-0.405,-2.814,0.460,-164.673,153.687,118.103,23,57,215470.376,-1.099,0.797,81.848,40.588,124.817,23,57,215620.723,-1.283,0.005,22.766,137.817,101.013,23,57,215770.684,-1.206,-0.583,56.458,217.957,86.609,23,57,21592-0.014,-0.922,-0.449,86.365,195.007,79.773,23,57,216070.102,-0.907,-0.390,31.311,123.596,88.562,23,57,216220.198,-1.047,0.100,13.184,54.077,104.248,23,57,216370.038,-1.134,0.349,-15.503,-91.858,121.582,23,57,216520.600,-1.058,0.496,-17.212,-107.788,106.995,23,57,216670.560,-1.063,0.464,-5.615,-77.881,71.777,23,57,216820.310,-1.060,0.109,13.672,32.654,51.453,23,57,216970.181,-1.056,0.033,16.846,73.975,30.945,23,57,217120.044,-1.022,-0.040,18.494,74.829,23.560,23,57,21728-0.119,-0.970,0.013,13.916,50.903,22.766,23,57,217420.043,-1.018,0.063,6.348,12.207,29.114,23,57,217570.064,-1.016,0.077,5.981,-3.357,30.945,23,57,217720.094,-1.012,0.176,4.395,-14.404,32.471,23,57,217870.148,-1.000,0.198,7.202,-10.986,31.555,23,57,218020.167,-0.988,0.170,9.766,11.047,26.367,23,57,218170.053,-0.973,0.063,14.709,12.573,23.376,23,57,21832-0.023,-1.007,-0.026,15.625,17.151,22.461,23,57,21847-0.021,-1.011,-0.011,11.475,-2.075,28.442,23,57,218620.079,-1.041,0.063,10.498,-12.390,31.494,23,57,218770.137,-1.027,0.060,7.812,-19.531,33.997,23,57,218920.117,-0.967,0.078,5.432,-12.268,33.081,23,57,219070.095,-0.981,0.063,5.432,-6.836,32.898,23,57,219220.034,-1.028,0.042,6.226,0.549,34.912,23,57,219370.004,-1.077,0.028,6.897,-1.282,40.466,23,57,21952-0.014,-1.058,0.013,7.263,-5.432,47.791,23,57,21967-0.072,-1.079,0.018,7.019,-5.127,52.490,23,57,21982-0.126,-1.115,0.049,6.104,5.920,64.575,23,57,21997-0.108,-1.101,0.128,7.263,12.451,80.566,23,57,220120.030,-1.113,0.295,8.240,17.029,88.501,23,57,220280.097,-1.262,0.168,7.019,33.386,102.234,23,57,220420.054,-1.365,0.140,7.690,46.936,114.990,23,57,220570.053,-1.400,0.167,8.118,46.326,129.211,23,57,22072-0.016,-1.635,0.080,6.897,39.124,136.169,23,57,22087-0.253,-1.843,0.189,4.211,37.292,151.184,23,57,22102-0.309,-1.890,0.338,10.071,20.935,170.837,23,57,22117-0.626,-2.286,0.552,12.268,9.888,183.350,23,57,22132-1.325,-2.709,0.756,3.723,-24.597,214.050,23,57,22147-0.763,-2.198,0.468,10.254,-57.129,229.126,23,57,22162-0.398,-1.952,0.341,20.752,-64.392,224.060,23,57,221770.734,-1.677,-0.051,12.329,-86.060,215.637,23,57,221920.501,-1.543,0.029,-10.132,-70.190,214.050,23,57,222070.235,-1.385,0.133,-31.006,-9.888,166.077,23,57,222220.379,-0.975,-0.389,-25.269,11.963,137.024,23,57,22237-0.017,-0.458,0.170,-0.977,3.601,96.802,23,57,22252-0.264,-0.469,-0.046,-8.362,-3.235,30.029,23,57,22267-0.208,-0.442,-0.127,7.446,-2.686,-8.484,23,57,222830.121,-0.260,-0.243,22.095,-18.494,-54.077,23,57,222970.148,-0.154,-0.123,13.062,-25.391,-81.726,23,57,223120.087,-0.163,-0.042,-2.075,-26.672,-136.902,23,53,223270.039,-0.219,0.039,-3.906,-11.230,-174.194,23,57,223420.026,-0.313,0.008,-3.784,0.854,-208.313,23,57,223570.035,-0.339,-0.004,-4.272,1.953,-223.450,23,57,223720.031,-0.400,-0.003,-7.996,2.319,-251.587,23,57,223870.009,-0.539,0.001,-12.390,1.160,-275.696,23,57,22402-0.058,-0.773,-0.004,-14.709,-5.615,-283.569,23,57,22417-0.023,-0.783,0.006,-21.790,-33.630,-299.011,23,57,224320.022,-0.929,0.114,-22.156,-51.331,-316.528,23,57,22447-0.052,-1.357,0.076,-17.639,-77.393,-320.007,23,57,224620.067,-1.517,0.173,-18.982,-83.923,-321.655,23,57,224770.719,-2.047,0.322,-3.113,-83.069,-340.332,23,57,224930.976,-2.117,0.332,2.686,-28.015,-353.699,23,57,225070.948,-2.304,0.217,4.578,7.385,-348.816,23,57,225220.897,-2.273,0.097,6.836,11.658,-307.068,23,57,225371.127,-1.861,-0.086,-2.319,-45.776,-233.643,23,57,225521.499,-1.631,-0.220,-0.977,-67.261,-162.231,23,57,225671.670,-1.576,-0.231,34.058,-85.022,-117.126,23,57,225821.949,-1.077,-0.087,34.790,-98.572,-12.390,23,57,225971.930,-0.849,0.309,22.583,-55.115,75.684,23,57,226121.968,-0.853,0.394,6.714,-14.709,105.103,23,57,226270.116,-1.586,0.298,11.414,90.759,107.605,23,57,22642-2.602,-1.478,0.496,61.768,3.296,45.288,23,57,226570.291,-0.945,1.013,-4.944,-49.500,81.665,23,57,22672-0.081,-2.055,1.641,-63.599,141.663,149.719,23,57,226870.203,-1.684,0.916,52.612,61.584,129.333,23,57,227020.448,-1.233,0.093,24.048,144.043,103.149,23,57,227170.573,-1.243,-0.600,71.411,223.206,91.736,23,57,227320.567,-1.136,-0.623,53.711,155.212,99.609,23,57,22747-0.007,-0.997,-0.323,7.935,57.861,110.596,23,57,22762-0.010,-0.939,-0.198,-6.165,-9.094,119.385,23,57,227770.148,-0.971,0.147,-23.560,-104.736,129.150,23,57,227920.207,-1.077,0.619,-11.536,-73.425,108.643,23,57,228070.651,-1.059,0.479,5.859,-1.282,81.421,23,57,228220.538,-1.079,0.136,19.775,77.759,44.922,23,57,228370.225,-1.024,-0.007,17.639,60.913,38.391,23,57,228520.029,-1.005,0.078,12.207,42.725,33.936,23,57,22867-0.096,-0.996,0.032,12.268,30.518,35.522,23,57,228820.063,-0.999,-0.029,6.348,-2.319,37.659,23,57,228970.149,-1.023,0.046,1.709,-5.493,35.217,23,57,229120.126,-1.020,0.099,1.892,-5.493,33.264,23,57,229270.169,-1.022,0.185,4.944,2.625,27.527,23,57,229420.223,-1.009,0.142,8.423,14.771,19.775,23,57,229570.124,-0.976,0.054,8.606,0.549,17.578,23,57,229720.076,-0.984,0.036,6.531,3.296,18.982,23,57,229870.053,-1.017,0.059,4.089,-18.433,23.071,23,57,230020.145,-1.049,0.096,3.113,-29.358,22.583,23,57,230170.171,-1.062,0.097,2.686,-28.687,21.057,23,57,230320.088,-1.015,0.096,1.465,-25.635,20.142,23,57,230470.035,-0.956,0.050,2.930,-21.301,23.315,23,57,230620.055,-0.969,0.053,3.418,-15.503,26.001,23,57,230770.019,-1.000,0.053,2.441,-4.639,32.654,23,57,23092-0.101,-1.071,0.015,1.587,-3.540,43.945,23,57,23107-0.088,-1.041,0.020,0.305,3.601,57.068,23,56,23122-0.114,-1.065,0.012,-0.793,9.216,65.125,23,56,23137-0.184,-1.159,0.033,-1.160,12.024,84.229,23,56,23152-0.067,-1.112,0.190,0.244,20.020,100.281,23,57,23167-0.009,-1.112,0.242,0.427,28.931,106.567,23,57,231820.131,-1.193,0.361,-2.075,47.913,118.835,23,57,231970.073,-1.361,0.199,-1.038,49.805,131.226,23,57,232120.074,-1.500,0.167,-0.549,45.837,144.043,23,57,232270.047,-1.618,0.149,-3.052,42.847,149.963,23,57,23242-0.219,-1.867,0.116,-0.366,33.691,166.809,23,57,23257-0.430,-1.975,0.282,7.874,10.071,191.040,23,57,23272-0.409,-2.070,0.514,3.662,-3.479,206.177,23,57,23287-1.346,-2.778,0.572,-5.310,-35.156,230.469,23,57,23302-0.853,-2.379,0.465,20.447,-55.542,222.656,23,57,23317-0.443,-1.919,0.106,15.381,-82.764,218.262,23,57,233320.259,-1.697,-0.126,-0.854,-95.154,213.562,23,57,233480.956,-1.573,-0.107,-38.147,-25.940,190.491,23,57,233620.424,-1.221,0.121,-29.541,24.780,130.005,23,57,233770.447,-1.025,-0.142,-21.606,17.151,112.671,23,57,23392-0.431,-0.631,0.155,-1.404,54.504,20.874,23,56,23407-0.449,-0.550,-0.260,38.696,45.227,-45.227,23,56,23422-0.214,-0.426,-0.324,31.738,24.292,-54.932,23,56,234370.063,-0.190,-0.273,0.488,3.113,-82.092,23,56,234520.083,-0.156,-0.170,-5.005,-1.526,-121.033,23,56,23467-0.014,-0.186,-0.050,-1.953,-5.676,-159.546,23,56,23482-0.023,-0.223,-0.012,-2.014,-7.568,-176.331,23,56,234970.010,-0.293,-0.009,-5.920,-6.287,-208.069,23,56,235120.034,-0.352,-0.017,-6.836,-11.230,-238.770,23,56,235270.039,-0.394,-0.003,-7.690,-14.465,-252.563,23,57,235420.016,-0.540,0.028,-11.963,-20.447,-276.306,23,57,23558-0.045,-0.830,0.021,-16.357,-38.879,-289.612,23,57,235720.029,-0.874,0.121,-16.724,-53.406,-298.279,23,57,235870.031,-1.022,0.144,-6.897,-71.350,-317.627,23,57,236020.002,-1.421,0.149,-4.517,-87.402,-320.251,23,57,236170.537,-1.848,0.374,5.249,-93.506,-332.031,23,57,236320.850,-2.087,0.434,16.418,-83.191,-343.445,23,57,236470.929,-2.128,0.379,23.621,-17.395,-352.478,23,57,236621.080,-2.186,0.253,18.616,26.917,-329.651,23,57,236771.012,-2.162,0.129,10.559,14.343,-301.514,23,57,236921.247,-1.800,-0.043,-3.174,-40.344,-230.530,23,57,237071.605,-1.621,-0.173,12.695,-53.345,-158.997,23,57,237221.889,-1.310,-0.089,33.386,-76.294,-60.913,23,57,237371.972,-1.032,0.052,32.349,-71.533,-9.094,23,57,237521.990,-0.849,0.314,14.099,-25.208,75.195,23,57,237671.767,-0.907,0.440,-6.409,52.917,129.700,23,57,237820.100,-1.663,0.094,12.512,109.375,117.310,23,57,23797-3.048,-1.588,0.055,79.041,0.916,57.373,23,57,238120.728,-0.505,2.349,-129.089,56.458,114.563,23,57,23827-0.364,-2.670,0.895,-94.238,140.259,155.701,23,57,238420.115,-1.837,1.071,44.739,20.508,148.438,23,57,238580.739,-1.175,0.188,37.842,198.364,117.676,23,57,238720.874,-1.113,-0.772,83.435,213.013,90.393,23,57,238870.614,-1.076,-0.448,56.335,177.917,94.543,23,57,239030.030,-1.026,-0.211,10.071,82.214,109.192,23,57,239170.069,-0.975,-0.162,-5.615,-65.674,122.131,23,57,239320.183,-0.952,0.333,-12.756,-112.488,126.831,23,57,239470.156,-1.056,0.606,-1.465,-55.664,106.934,23,57,239620.705,-1.073,0.259,19.653,57.495,59.998,23,57,239770.284,-1.077,-0.047,18.982,58.105,46.875,23,57,239920.186,-1.018,0.047,18.677,55.237,43.335,23,57,240070.003,-1.012,0.017,16.541,45.044,37.415,23,57,240220.001,-1.018,-0.077,14.465,3.845,39.734,23,57,240370.084,-1.008,-0.056,10.132,-5.432,39.490,23,57,240520.169,-1.021,0.003,6.165,-4.761,36.316,23,57,240670.134,-1.036,0.050,5.493,-4.761,33.264,23,57,240820.194,-1.011,0.177,8.240,-4.028,31.372,23,57,240970.201,-1.001,0.134,10.254,2.441,27.649,23,57,241120.079,-0.990,-0.016,8.362,-4.517,29.480,23,57,241270.095,-1.025,-0.037,7.690,-20.203,31.738,23,57,241420.143,-1.026,-0.032,6.897,-23.560,31.494,23,57,241570.163,-1.032,0.038,6.470,-27.954,31.616,23,57,241720.170,-1.055,0.091,5.066,-24.109,31.128,23,57,241870.111,-1.037,0.015,4.578,-21.667,30.884,23,57,242020.095,-0.971,0.018,5.432,-15.747,35.095,23,57,242170.161,-1.031,0.147,5.676,-3.357,38.574,23,57,242320.047,-1.111,0.134,5.310,-4.761,44.556,23,57,242480.020,-1.081,0.113,6.348,-5.737,49.072,23,57,24262-0.036,-1.085,-0.019,4.211,1.892,61.951,23,57,24277-0.152,-1.199,-0.041,5.127,8.423,80.627,23,57,24292-0.110,-1.190,0.067,5.859,13.000,89.966,23,57,24307-0.007,-1.196,0.235,5.676,29.297,106.140,23,57,24322-0.004,-1.256,0.193,7.568,43.701,122.803,23,52,24337-0.059,-1.417,0.081,7.935,46.326,131.897,23,57,24352-0.093,-1.522,0.056,10.681,40.405,150.879,23,57,24367-0.154,-1.802,0.124,8.362,31.250,171.997,23,57,24382-0.529,-2.128,0.234,17.944,3.845,196.716,23,57,24397-0.667,-2.187,0.427,20.569,-20.264,211.792,23,57,24412-1.389,-2.657,0.832,-2.625,-65.063,241.760,23,57,24427-1.141,-2.439,0.589,28.381,-74.219,227.966,23,57,24442-0.540,-2.029,0.103,17.517,-85.327,225.586,23,57,244570.524,-1.937,-0.140,-7.629,-77.209,224.060,23,57,244720.730,-1.761,0.061,-47.424,-4.944,190.491,23,57,244870.236,-1.392,0.094,-11.963,17.090,127.441,23,57,245030.281,-1.113,-0.284,4.822,0.305,104.309,23,57,24517-0.294,-0.575,0.215,9.521,16.846,17.700,23,57,24532-0.391,-0.571,-0.204,55.237,-2.319,-54.382,23,57,24547-0.218,-0.453,-0.221,50.110,-26.855,-64.880,23,57,245620.060,-0.163,-0.156,20.752,-49.805,-90.210,23,57,245770.099,-0.125,-0.009,11.719,-51.453,-128.174,23,57,24592-0.003,-0.178,0.106,16.663,-56.274,-167.908,23,57,246070.004,-0.239,0.192,20.325,-60.059,-185.364,23,57,246220.028,-0.279,0.198,17.822,-54.626,-218.140,23,57,246370.091,-0.358,0.198,17.334,-49.988,-249.390,23,57,246520.084,-0.415,0.195,16.846,-40.527,-264.160,23,57,246670.029,-0.596,0.202,14.221,-38.696,-287.903,23,57,246820.069,-0.752,0.210,7.629,-53.833,-306.580,23,57,246970.135,-0.742,0.248,6.897,-52.734,-322.388,23,57,247130.103,-0.983,0.345,0.183,-48.157,-341.675,23,57,24727-0.025,-1.401,0.277,0.916,-75.012,-345.581,23,57,247420.455,-1.817,0.535,-7.874,-78.186,-348.206,23,57,247570.895,-2.082,0.507,-4.883,-63.599,-362.488,23,57,247721.183,-2.283,0.426,-8.057,1.038,-371.948,23,57,247871.051,-2.470,0.249,-9.766,49.377,-333.069,23,57,248021.002,-2.324,0.045,-6.409,32.288,-300.171,23,57,248171.456,-1.786,-0.352,-4.272,-23.438,-218.201,23,57,248321.602,-1.647,-0.375,34.668,-98.633,-114.014,23,54,248471.938,-1.320,-0.212,42.236,-120.728,-60.974,23,57,248622.115,-0.915,-0.073,13.977,-108.643,46.753,23,57,248772.074,-0.873,0.272,-4.089,-32.715,120.117,23,57,248921.285,-1.113,0.582,-14.099,69.397,155.518,23,57,24907-2.233,-2.052,0.021,27.832,122.620,96.436,23,57,24922-1.042,-1.335,0.481,72.083,-117.615,76.355,23,57,249370.485,-1.235,2.261,-143.066,164.307,142.883,23,57,24952-0.196,-2.835,1.082,-10.132,136.780,155.701,23,57,249670.340,-1.267,1.181,30.029,90.637,128.174,23,57,249820.551,-1.292,-0.086,62.134,202.087,102.356,23,57,249970.656,-1.218,-0.840,89.417,203.613,92.896,23,57,250120.568,-1.105,-0.615,53.955,150.696,96.436,23,57,250270.085,-0.977,-0.553,12.817,36.560,113.403,23,57,250420.194,-1.020,0.072,-9.583,-32.227,124.207,23,57,250570.028,-1.117,0.301,-18.799,-106.995,127.380,23,57,250720.402,-1.046,0.556,4.761,-22.095,93.445,23,57,250870.559,-1.053,0.156,14.832,33.264,72.021,23,57,251020.354,-1.128,-0.039,12.085,45.532,52.917,23,57,251170.245,-1.031,0.143,17.395,40.833,41.382,23,57,251320.088,-1.007,0.002,14.893,38.574,32.410,23,57,251470.008,-1.015,-0.054,13.245,20.081,34.302,23,57,251620.094,-1.001,0.007,9.033,-0.916,35.400,23,57,251770.136,-1.019,0.011,5.554,0.488,34.241,23,57,251920.130,-1.036,0.047,5.493,0.000,33.630,23,57,252070.152,-1.005,0.110,9.399,0.916,29.968,23,57,252230.144,-0.989,0.137,12.695,4.578,26.794,23,57,252370.094,-0.986,0.015,12.878,2.625,27.771,23,57,252520.047,-0.994,-0.030,9.888,-5.066,29.724,23,57,252670.065,-1.034,-0.028,9.521,-18.066,33.020,23,57,252820.098,-1.039,0.055,8.606,-22.278,34.912,23,57,252970.048,-1.042,0.042,7.324,-22.827,36.560,23,57,253120.077,-1.007,0.042,8.728,-15.137,39.551,23,57,253270.095,-0.993,0.021,9.460,-4.883,44.617,23,57,253420.078,-1.091,0.062,10.803,-2.502,46.936,23,57,253570.043,-1.086,0.046,10.803,-6.409,53.040,23,57,253720.011,-1.084,-0.016,8.179,-6.531,62.744,23,57,25387-0.089,-1.142,0.058,6.653,2.747,76.599,23,57,25402-0.094,-1.159,0.112,8.057,10.803,84.167,23,57,254170.008,-1.190,0.213,10.315,24.719,100.342,23,57,254320.036,-1.257,0.227,11.719,35.583,115.723,23,57,254470.025,-1.370,0.133,12.756,37.964,123.352,23,57,25462-0.032,-1.459,0.101,15.991,33.875,139.709,23,57,25477-0.101,-1.584,0.179,20.142,20.935,157.898,23,57,25492-0.194,-1.854,0.348,19.165,14.160,182.312,23,57,25507-0.407,-2.102,0.410,14.343,-8.789,195.618,23,57,25522-1.080,-2.402,0.848,6.531,-86.487,230.408,23,57,25537-1.703,-2.628,1.171,20.081,-129.272,239.868,23,57,25552-0.319,-2.043,0.339,24.597,-108.459,230.042,23,57,255680.241,-1.897,0.119,-4.639,-57.678,222.046,23,57,255820.851,-1.923,-0.310,-30.884,-23.438,201.050,23,57,255970.415,-1.755,0.024,-42.480,16.663,178.589,23,57,256120.019,-1.481,-0.034,-19.836,35.034,126.587,23,57,256270.367,-0.692,0.068,-28.015,9.766,80.261,23,57,25642-0.406,-0.664,-0.058,-29.907,30.640,33.081,23,57,25657-0.463,-0.713,-0.382,37.415,6.897,-48.828,23,57,25672-0.187,-0.424,-0.405,29.297,-65.430,-66.772,23,57,256870.101,-0.085,-0.237,-9.888,-75.867,-95.947,23,57,257020.182,-0.051,-0.011,-20.691,-67.505,-116.150,23,57,257170.089,-0.124,-0.003,-18.860,-56.946,-158.813,23,57,257320.012,-0.225,0.041,-13.550,-42.908,-198.792,23,57,257470.017,-0.289,0.023,-12.939,-34.668,-217.712,23,57,257620.074,-0.385,0.010,-10.315,-19.165,-252.869,23,57,257770.109,-0.477,-0.010,-8.728,-5.981,-282.043,23,57,257920.016,-0.738,0.000,-9.583,-2.563,-295.288,23,57,258070.010,-0.825,-0.007,-14.099,-16.602,-314.575,23,57,258230.116,-0.869,0.062,-18.005,-25.635,-341.309,23,57,25837-0.121,-1.519,0.021,-19.531,-51.025,-346.375,23,57,258520.454,-2.039,0.275,-13.184,-66.528,-347.717,23,57,258671.136,-2.461,0.120,-15.442,-69.336,-355.103,23,57,258821.067,-2.371,0.070,13.489,-53.650,-371.765,23,57,258971.008,-2.423,-0.040,5.310,-20.264,-367.249,23,57,259121.201,-1.933,-0.180,7.996,-5.371,-316.589,23,57,259271.602,-1.556,-0.280,12.939,-64.087,-243.469,23,57,259421.785,-1.483,-0.219,19.043,-73.975,-206.787,23,57,259572.062,-1.016,0.022,42.542,-92.773,-122.559,23,57,259721.999,-0.846,0.297,38.330,-80.322,-32.593,23,57,259871.967,-0.837,0.382,25.940,-59.692,17.944,23,57,260021.764,-0.919,0.559,10.742,18.250,89.355,23,57,26017-2.856,-1.788,0.180,-2.136,106.934,132.202,23,57,26033-2.773,-0.936,1.234,61.401,133.301,58.044,23,57,260470.884,-0.742,2.403,80.200,22.278,45.654,23,57,26062-0.521,-2.934,0.767,-143.372,124.268,131.226,23,57,260780.445,-1.320,0.543,56.396,73.853,158.142,23,57,260921.037,-1.409,-0.650,67.810,36.804,151.978,23,57,261070.793,-1.017,-0.656,67.078,278.870,110.046,23,57,26122-0.025,-0.837,-0.096,83.557,209.900,103.210,23,57,26137-0.094,-0.839,-0.234,44.067,166.992,98.328,23,57,261520.141,-1.143,0.129,0.061,42.542,123.108,23,57,261670.181,-0.985,0.804,-23.132,-156.433,150.757,23,57,261820.885,-1.006,0.553,-11.963,-134.094,140.564,23,57,261970.521,-1.154,-0.091,21.057,26.428,82.397,23,57,262120.282,-0.990,0.297,8.362,42.175,54.138,23,57,262270.251,-1.006,0.174,14.526,48.279,50.659,23,57,26242-0.117,-1.047,-0.063,17.822,65.552,31.555,23,57,262570.108,-0.975,0.001,14.771,22.949,35.156,23,57,262720.149,-0.989,-0.015,12.390,4.639,36.560,23,57,262870.085,-1.026,0.019,6.775,-5.493,33.997,23,57,263020.134,-1.034,0.153,3.601,-12.756,32.898,23,57,263170.184,-1.024,0.153,5.676,-9.216,31.067,23,57,263320.151,-0.963,0.115,7.751,-6.287,28.870,23,52,263470.045,-0.983,0.014,7.996,0.732,26.794,23,57,263620.079,-0.994,0.007,7.629,-5.493,30.273,23,57,263780.160,-1.003,0.003,7.935,-10.559,31.128,23,57,263920.164,-1.033,0.069,5.554,-16.418,33.081,23,57,264070.100,-1.040,0.085,3.845,-18.555,34.241,23,57,264230.092,-1.005,0.063,2.502,-19.165,35.461,23,57,264370.130,-0.967,0.077,1.709,-18.188,36.621,23,57,264520.151,-1.008,0.141,3.113,-10.315,39.734,23,57,264670.131,-1.014,0.150,4.211,-6.226,42.786,23,57,264820.079,-1.059,0.077,4.578,-1.343,45.044,23,57,26497-0.062,-1.170,0.040,1.831,6.104,52.063,23,57,26512-0.058,-1.148,0.210,1.404,10.803,65.857,23,57,265270.016,-1.136,0.278,2.136,14.587,74.219,23,57,265420.057,-1.225,0.216,2.319,30.945,88.989,23,57,265570.040,-1.341,0.097,2.930,45.959,103.577,23,57,26572-0.009,-1.395,0.062,4.028,46.997,111.206,23,57,26587-0.032,-1.495,0.094,5.615,41.321,126.526,23,57,26602-0.123,-1.779,0.184,5.615,31.921,143.860,23,57,26617-0.279,-1.981,0.171,3.296,28.625,163.696,23,57,26632-0.604,-2.126,0.499,6.226,20.264,174.561,23,57,26647-1.304,-2.631,0.712,16.235,-20.996,203.247,23,57,26662-1.271,-2.656,0.605,6.592,-63.782,231.689,23,57,26677-0.595,-2.123,0.407,19.653,-71.594,231.262,23,57,266920.304,-1.812,-0.076,21.423,-91.064,224.365,23,57,267070.923,-1.627,-0.054,2.502,-98.694,219.727,23,57,267230.656,-1.544,0.013,-18.555,-75.562,218.689,23,57,267370.323,-1.205,-0.270,-43.762,1.343,170.654,23,57,267520.039,-0.648,0.135,-13.550,11.780,117.554,23,57,26767-0.368,-0.646,-0.049,-21.790,22.522,49.500,23,57,26782-0.217,-0.500,-0.275,21.118,29.907,-5.432,23,57,267970.086,-0.177,-0.238,37.903,-4.761,-49.744,23,57,268120.178,-0.087,-0.122,6.531,-25.269,-75.439,23,57,268270.125,-0.107,-0.105,-6.165,-20.935,-93.628,23,57,268420.042,-0.141,-0.028,-6.042,-13.000,-136.230,23,57,268570.022,-0.215,-0.005,-2.930,-12.451,-175.110,23,57,268720.038,-0.257,-0.020,-4.517,-7.690,-192.871,23,57,268870.083,-0.331,-0.052,-6.775,2.563,-226.929,23,57,269020.039,-0.431,-0.019,-7.080,4.150,-256.531,23,57,269170.015,-0.519,0.009,-12.085,2.930,-283.691,23,57,26932-0.053,-0.829,0.001,-15.625,-1.038,-294.495,23,57,269470.046,-0.855,0.108,-21.912,-28.076,-306.519,23,57,26962-0.094,-1.300,0.055,-23.865,-55.115,-325.439,23,57,26977-0.068,-1.536,0.128,-16.602,-70.435,-330.750,23,57,269920.729,-2.167,0.363,-13.428,-93.018,-330.261,23,57,270071.042,-2.354,0.352,2.686,-90.393,-345.886,23,57,270220.964,-2.286,0.313,15.015,-35.034,-361.511,23,57,270370.984,-2.276,0.131,22.522,5.188,-356.506,23,57,270521.110,-1.804,-0.139,25.513,19.592,-312.012,23,57,270671.553,-1.484,-0.074,6.836,-56.824,-233.459,23,57,270821.759,-1.463,-0.077,5.432,-68.665,-198.608,23,57,270971.881,-1.149,0.011,28.687,-64.331,-128.784,23,57,271121.781,-0.938,0.280,34.180,-65.308,-37.354,23,57,271271.842,-0.912,0.332,23.499,-55.603,12.573,23,57,271431.020,-1.201,0.388,9.705,-5.188,83.862,23,57,27157-3.279,-1.472,0.312,-2.258,81.482,124.084,23,57,271720.457,-0.791,1.403,42.725,80.078,60.242,23,57,271870.661,-1.042,1.797,54.749,1.099,53.101,23,57,27202-0.256,-2.337,0.791,-110.840,138.916,126.160,23,57,272170.278,-1.046,0.689,42.297,65.796,146.606,23,57,272320.474,-1.043,-0.059,44.434,54.932,138.855,23,57,272471.005,-1.191,-0.907,37.903,218.079,99.182,23,57,272620.209,-1.049,-0.205,78.430,212.036,90.759,23,57,27277-0.082,-1.020,0.013,22.766,116.516,97.900,23,57,272920.118,-0.986,-0.035,3.601,67.017,104.858,23,57,273070.025,-1.052,0.352,-9.277,-66.467,118.286,23,57,273220.589,-1.085,0.540,-17.517,-118.896,123.047,23,57,273370.695,-1.097,0.467,-8.850,-83.923,107.239,23,57,273520.360,-1.044,-0.008,17.944,31.982,61.951,23,57,273670.221,-1.023,0.030,15.869,72.815,39.673,23,57,273820.117,-1.026,-0.036,15.930,74.463,35.522,23,57,27397-0.102,-0.994,-0.015,11.169,54.626,30.762,23,57,274120.066,-1.021,0.026,5.371,20.996,33.569,23,57,274270.141,-1.014,0.119,1.099,-6.409,35.034,23,57,274430.147,-1.023,0.156,0.000,-8.179,33.630,23,57,274570.174,-1.008,0.229,1.343,-4.028,29.724,23,57,274720.174,-0.994,0.142,7.202,5.127,24.597,23,57,274870.112,-0.989,0.065,9.155,12.390,21.851,23,57,275020.012,-0.992,0.012,9.216,12.817,21.179,23,57,275170.077,-0.996,0.051,6.165,-7.324,26.611,23,57,275320.125,-1.009,0.105,5.798,-21.179,29.419,23,57,275470.178,-1.048,0.116,6.531,-22.644,29.846,23,57,275620.088,-0.994,0.058,5.432,-15.991,28.748,23,57,275770.088,-0.962,0.045,4.333,-12.695,29.541,23,57,275920.113,-0.995,0.059,5.005,-11.963,31.311,23,57,276070.084,-1.039,0.062,5.615,-8.911,35.950,23,57,276220.045,-1.049,0.027,5.737,-7.019,39.856,23,57,276370.015,-1.043,0.001,5.615,-7.751,42.847,23,57,27652-0.068,-1.097,-0.007,3.540,-5.371,51.575,23,57,27667-0.085,-1.099,0.093,1.160,2.380,65.430,23,57,276820.003,-1.107,0.266,1.343,9.399,81.360,23,57,276970.089,-1.148,0.308,0.854,14.771,88.806,23,57,277120.059,-1.288,0.149,-2.502,34.546,102.356,23,57,277270.067,-1.395,0.124,-1.526,42.786,117.126,23,57,277420.028,-1.469,0.131,-0.916,40.527,124.084,23,57,277570.026,-1.739,0.177,0.000,33.447,138.428,23,57,27772-0.262,-1.903,0.303,-1.648,31.860,154.358,23,57,27788-0.294,-1.924,0.598,6.042,13.184,174.561,23,57,27802-0.748,-2.338,0.809,7.324,-0.549,188.538,23,57,27817-1.006,-2.540,0.570,-8.911,-29.358,219.055,23,57,27832-0.633,-2.133,0.385,17.334,-41.138,219.788,23,57,27847-0.337,-1.872,0.186,18.311,-48.462,218.079,23,57,278620.655,-1.685,-0.377,8.850,-72.327,213.135,23,57,278770.456,-1.419,-0.062,-10.071,-58.533,198.425,23,57,278920.383,-1.217,0.101,-28.931,-29.541,147.644,23,57,279070.527,-0.770,-0.310,-27.771,30.396,125.488,23,53,27922-0.062,-0.456,0.286,-12.817,-8.667,94.482,23,57,27937-0.287,-0.623,-0.317,-31.433,35.461,11.719,23,57,27953-0.144,-0.518,-0.404,3.967,51.697,-31.250,23,57,279670.116,-0.134,-0.315,33.264,14.343,-63.171,23,57,279820.145,-0.074,-0.159,5.737,-5.371,-84.961,23,57,279970.110,-0.115,-0.146,-9.521,2.563,-102.112,23,57,280120.031,-0.179,-0.101,-15.259,9.949,-139.099,23,57,280270.002,-0.265,-0.062,-11.780,0.305,-172.058,23,57,28042-0.007,-0.311,-0.047,-14.526,-5.554,-204.346,23,57,280570.006,-0.401,-0.072,-14.893,-7.568,-219.727,23,57,280720.032,-0.541,-0.088,-13.000,-14.282,-246.948,23,57,28087-0.013,-0.810,-0.082,-14.526,-23.621,-268.311,23,57,281020.034,-0.840,-0.069,-15.625,-32.166,-276.123,23,57,281170.064,-0.997,0.047,-19.226,-60.303,-290.649,23,57,28132-0.025,-1.456,0.057,-14.893,-75.623,-308.350,23,57,281470.115,-1.634,0.170,5.676,-89.111,-319.824,23,57,281630.824,-2.068,0.281,26.917,-68.848,-341.003,23,57,281770.865,-2.197,0.268,40.894,-18.494,-355.591,23,57,281920.814,-2.232,0.176,39.612,3.723,-349.731,23,57,282070.777,-2.228,0.089,28.992,-4.944,-307.739,23,57,282220.955,-1.895,-0.068,15.808,-84.900,-240.906,23,57,282371.303,-1.577,0.008,14.343,-105.835,-209.351,23,57,282521.464,-1.500,0.065,39.917,-113.281,-137.451,23,57,282671.811,-1.013,0.220,46.631,-100.891,-44.128,23,57,282821.760,-0.742,0.498,15.503,-54.199,49.561,23,57,282971.756,-0.756,0.587,4.150,-19.775,83.496,23,57,283121.759,-0.844,0.605,-22.705,56.946,136.475,23,57,28327-1.732,-2.053,-0.158,41.016,176.941,75.867,23,52,28342-0.768,-1.192,0.521,87.891,84.473,47.363,23,57,283570.670,-0.119,2.216,-85.815,10.437,92.163,23,57,28373-0.529,-2.618,0.844,-19.958,115.479,149.414,23,57,283870.363,-1.596,0.913,43.518,33.630,143.799,23,57,284020.691,-1.405,0.419,16.113,179.016,130.249,23,57,284170.910,-1.128,-0.798,72.083,244.080,102.173,23,57,284320.516,-0.975,-0.386,58.960,198.303,99.121,23,57,284470.148,-0.929,-0.172,5.981,115.234,113.770,23,57,284620.045,-1.069,-0.233,-1.587,-35.767,125.793,23,57,284770.154,-1.009,0.269,-9.216,-100.769,130.127,23,57,284920.070,-0.962,0.361,-13.611,-98.389,118.896,23,57,285070.754,-1.058,0.435,11.841,18.005,72.998,23,57,285220.422,-1.112,0.083,15.137,56.824,45.715,23,57,285370.311,-1.059,0.071,18.860,60.974,40.771,23,57,285520.175,-1.026,-0.004,17.151,47.729,31.128,23,56,28567-0.066,-0.993,-0.063,11.841,10.620,33.386,23,56,285830.013,-1.000,-0.025,9.399,-3.723,33.936,23,57,285970.150,-1.015,0.001,4.150,-7.874,31.189,23,57,286120.157,-1.024,0.024,3.540,-3.967,27.710,23,57,286270.170,-1.026,0.054,3.723,-0.671,25.696,23,57,286420.180,-1.005,0.130,8.118,5.737,21.179,23,57,286570.121,-0.981,0.073,9.949,7.996,19.470,23,57,286720.029,-1.018,-0.018,9.155,2.686,21.545,23,57,286870.020,-1.018,-0.021,6.836,-12.146,27.588,23,57,287020.095,-0.989,0.015,6.470,-19.165,29.846,23,57,287170.170,-1.014,0.064,6.836,-14.099,29.480,23,57,287320.182,-1.024,0.058,6.409,-9.399,28.870,23,57,287470.158,-1.045,0.010,4.700,-8.606,28.564,23,57,287620.096,-1.023,0.039,5.493,-15.076,30.823,23,57,287770.092,-0.946,0.074,6.226,-18.005,32.776,23,57,287920.151,-0.990,0.103,8.667,-9.766,36.499,23,57,288070.110,-0.983,0.042,9.033,2.441,40.466,23,57,28822-0.004,-1.117,-0.084,7.629,5.371,50.293,23,57,28837-0.090,-1.146,-0.092,7.874,1.343,57.373,23,57,28852-0.039,-1.090,0.082,7.507,3.906,72.571,23,57,288670.037,-1.166,0.134,6.653,20.996,84.839,23,57,28882-0.000,-1.199,0.096,7.019,24.780,92.102,23,57,288970.054,-1.247,0.054,7.080,24.902,107.056,23,57,289120.099,-1.323,0.015,6.714,19.897,119.995,23,57,289270.072,-1.522,0.051,5.676,19.409,126.831,23,57,28942-0.017,-1.660,0.055,2.991,19.409,141.663,23,56,28957-0.229,-1.782,0.239,11.353,2.441,161.987,23,56,28972-0.326,-1.956,0.490,12.390,-5.737,191.162,23,56,28987-0.456,-2.157,0.657,1.099,-31.006,204.651,23,56,29002-1.290,-2.669,0.560,14.587,-55.542,219.055,23,56,29017-0.699,-2.211,0.408,20.630,-73.303,215.881,23,56,29032-0.529,-2.022,0.300,14.771,-87.585,212.097,23,57,290470.662,-1.696,-0.107,-6.287,-86.853,213.684,23,57,290620.740,-1.510,0.036,-35.034,-25.513,178.162,23,57,290770.270,-1.210,0.092,-30.212,-8.484,151.306,23,57,290920.400,-0.959,-0.125,-7.935,-2.502,105.347,23,57,29107-0.388,-0.678,0.086,24.536,15.869,15.808,23,57,29122-0.333,-0.538,-0.130,49.194,0.183,-18.494,23,57,29138-0.178,-0.401,-0.128,38.452,-42.908,-43.274,23,57,291520.050,-0.270,-0.070,15.442,-50.659,-73.975,23,57,291670.075,-0.288,-0.014,19.958,-49.072,-113.464,23,57,291820.044,-0.299,0.025,25.574,-48.828,-133.362,23,57,291970.039,-0.325,0.127,26.428,-41.687,-168.762,23,57,292120.035,-0.358,0.154,25.269,-31.860,-202.576,23,57,292270.032,-0.381,0.142,26.672,-28.198,-218.933,23,57,292420.070,-0.434,0.101,26.672,-26.001,-247.925,23,57,292570.046,-0.534,0.117,22.400,-28.198,-272.949,23,57,292720.001,-0.753,0.115,19.043,-34.119,-287.537,23,57,292870.149,-0.825,0.211,13.245,-54.871,-297.424,23,57,293020.040,-1.239,0.185,9.888,-55.542,-323.486,23,57,293170.094,-1.408,0.229,9.460,-73.425,-330.994,23,57,293320.514,-1.795,0.408,4.028,-83.313,-334.290,23,57,293481.077,-2.142,0.379,-2.991,-80.383,-344.543,23,57,293621.077,-2.235,0.332,-0.061,-48.279,-365.540,23,57,293770.931,-2.423,0.157,-3.479,-14.771,-365.173,23,57,293921.129,-2.100,-0.064,-3.784,4.395,-324.219,23,57,294071.431,-1.758,-0.240,1.404,-50.171,-249.451,23,57,294221.636,-1.605,-0.142,9.827,-73.425,-208.923,23,57,294372.175,-0.928,0.059,48.035,-131.348,-106.506,23,57,294522.012,-0.874,0.360,33.142,-125.366,-3.296,23,57,294672.001,-0.840,0.475,12.207,-60.913,87.402,23,57,294821.869,-0.927,0.664,2.869,-19.348,118.591,23,57,29497-4.155,-2.110,-0.131,-27.893,66.284,169.312,23,57,29512-5.334,-2.498,-1.344,28.870,244.446,54.016,23,57,295271.796,0.934,2.202,121.277,99.121,2.502,23,57,29542-0.625,-3.045,0.836,-114.929,-47.241,85.327,23,57,29557-0.193,-2.394,0.734,-4.639,117.493,130.127,23,57,295720.465,-1.372,0.795,71.838,3.845,111.572,23,57,295870.659,-1.380,-0.408,10.742,160.828,97.961,23,57,296030.383,-1.203,-0.658,75.500,195.435,89.172,23,52,29617-0.023,-0.883,-0.516,64.758,170.105,86.609,23,57,296320.298,-0.973,-0.260,13.428,91.248,100.891,23,57,296470.079,-1.041,0.224,-5.798,-37.964,117.981,23,57,296620.159,-1.048,0.429,-12.451,-85.571,121.094,23,57,296770.468,-1.083,0.388,-16.357,-86.731,106.689,23,57,296920.437,-1.071,0.102,0.732,25.757,71.777,23,57,297070.279,-1.068,0.059,8.301,64.697,45.471,23,57,297220.030,-1.009,0.034,14.404,65.674,39.124,23,57,29737-0.029,-1.007,-0.033,12.268,49.500,35.461,23,57,297520.042,-0.998,-0.043,9.155,12.329,38.208,23,57,297670.074,-1.026,0.005,7.629,-1.953,38.208,23,57,297820.123,-1.049,0.048,2.136,-10.925,38.757,23,57,297970.162,-1.007,0.099,2.747,-4.333,36.255,23,57,298120.123,-0.994,0.108,4.150,1.770,33.203,23,57,29827-0.003,-0.995,0.054,7.202,11.414,28.687,23,57,298420.024,-1.023,-0.017,6.897,3.723,31.006,23,57,298580.086,-1.007,0.000,6.592,-3.540,33.325,23,57,298720.120,-1.010,0.029,7.080,-12.268,35.278,23,57,298870.087,-1.036,0.033,5.432,-9.644,36.072,23,57,299030.079,-1.042,0.026,4.456,-6.592,37.720,23,57,299170.080,-1.002,0.033,3.662,-5.798,38.757,23,57,299320.174,-0.978,0.060,3.845,-1.953,41.260,23,57,299480.181,-1.008,0.136,5.676,7.629,42.175,23,57,299620.197,-1.086,0.108,6.714,9.399,42.419,23,57,299770.106,-1.052,0.003,7.385,3.601,42.908,23,57,299920.019,-1.063,-0.012,7.385,-3.662,46.021,23,57,30007-0.024,-1.115,0.017,5.737,1.404,54.626,23,57,30022-0.081,-1.167,0.104,3.418,4.456,61.462,23,57,300370.014,-1.180,0.172,4.883,10.193,76.782,23,57,300520.043,-1.194,0.144,5.249,22.400,91.003,23,57,300670.002,-1.289,0.071,4.761,29.053,99.121,23,57,30082-0.007,-1.387,0.081,5.493,36.255,114.929,23,54,300970.008,-1.590,0.134,8.057,32.104,131.470,23,57,30112-0.145,-1.749,0.143,6.775,30.457,155.273,23,57,30127-0.388,-1.966,0.333,4.578,23.621,158.936,23,57,30142-0.621,-2.216,0.691,12.390,-1.526,184.021,23,57,30157-1.054,-2.491,0.819,11.719,-18.921,198.669,23,57,30172-0.969,-2.335,0.577,-7.263,-51.575,226.501,23,57,30187-0.261,-2.064,0.077,20.081,-56.335,220.520,23,57,302020.026,-1.885,0.014,17.700,-56.030,214.172,23,57,302170.693,-1.641,-0.026,1.526,-68.054,211.609,23,57,302320.412,-1.387,0.263,-33.813,-47.913,190.735,23,57,302470.175,-1.202,0.059,-39.429,15.869,138.245,23,57,302620.334,-0.482,0.154,-18.921,10.742,113.464,23,57,30277-0.401,-0.572,0.021,-25.452,-9.277,64.514,23,57,30292-0.278,-0.502,-0.266,15.686,29.419,-32.227,23,57,30307-0.079,-0.317,-0.252,40.344,13.489,-58.472,23,57,303220.126,-0.081,-0.091,34.851,-35.950,-79.163,23,57,303370.121,-0.140,0.015,-1.282,-36.072,-108.887,23,52,303520.071,-0.181,0.067,-7.812,-34.241,-146.057,23,57,30368-0.009,-0.268,0.137,-4.395,-37.537,-164.490,23,57,30382-0.030,-0.364,0.162,0.427,-41.565,-199.951,23,57,303970.000,-0.403,0.156,1.953,-42.664,-232.117,23,57,304120.061,-0.519,0.119,1.465,-41.992,-245.972,23,57,304270.060,-0.731,0.147,-1.648,-44.495,-269.165,23,57,304420.113,-0.789,0.221,-4.883,-57.495,-286.560,23,57,304570.099,-0.888,0.268,-5.127,-62.805,-315.430,23,57,304720.000,-1.323,0.266,-6.165,-60.181,-327.698,23,57,304870.114,-1.674,0.375,-2.441,-73.730,-334.167,23,57,305020.380,-1.935,0.491,-4.700,-81.299,-342.896,23,57,305170.962,-2.328,0.460,-5.615,-72.083,-349.121,23,57,305320.827,-2.298,0.300,-0.854,-46.997,-366.638,23,57,305470.794,-2.365,-0.015,-7.629,4.395,-350.342,23,57,305621.034,-2.123,-0.219,-9.216,10.437,-323.730,23,57,305781.317,-1.659,-0.354,-2.563,-39.551,-255.005,23,57,305921.792,-1.290,-0.172,19.104,-83.313,-174.072,23,57,306071.994,-1.012,-0.129,43.213,-125.793,-74.341,23,57,306221.868,-0.837,0.360,32.715,-127.869,-22.217,23,57,306371.815,-0.897,0.405,2.869,-69.031,70.129,23,57,306521.762,-0.973,0.445,-5.615,30.518,119.385,23,57,30667-1.219,-1.629,0.495,-12.817,75.439,138.672,23,57,30682-2.640,-1.755,-0.098,-2.136,192.139,110.229,23,57,306971.014,-0.417,0.718,106.567,-3.174,39.124,23,57,30712-0.341,-1.860,1.488,14.221,-72.815,80.139,23,57,307270.143,-1.758,0.788,-90.332,148.499,141.602,23,57,307420.569,-1.327,0.514,63.965,-15.320,131.287,23,57,307570.789,-1.496,-0.388,19.226,164.795,106.140,23,57,307720.630,-1.228,-0.432,66.406,233.215,88.928,23,57,30788-0.074,-0.809,-0.198,67.688,179.993,97.168,23,57,308020.083,-0.823,-0.197,10.498,86.975,99.731,23,57,308170.122,-1.129,0.074,-2.625,33.264,108.582,23,57,308320.084,-1.043,0.424,-0.366,-107.910,122.803,23,57,308470.615,-1.052,0.342,-13.794,-93.079,106.018,23,57,308620.570,-1.032,0.231,-4.395,-35.889,88.013,23,57,308770.275,-1.060,0.088,15.320,57.373,52.490,23,57,308920.085,-1.031,0.063,16.541,71.533,35.889,23,57,30907-0.016,-0.992,-0.001,14.160,59.204,30.945,23,57,309220.021,-1.012,0.003,10.681,43.945,31.616,23,57,309370.105,-1.017,0.025,7.751,7.385,34.119,23,57,309520.102,-1.010,0.073,3.052,-2.930,33.752,23,57,309670.120,-1.014,0.134,2.502,-1.831,32.410,23,57,309820.146,-1.001,0.195,5.493,2.380,28.809,23,57,309970.127,-0.980,0.092,10.559,12.390,23.987,23,57,310120.093,-0.970,0.035,11.780,16.418,21.667,23,57,310270.015,-0.993,0.027,10.803,10.742,22.766,23,57,310420.063,-1.042,0.016,8.911,-3.662,27.527,23,57,310570.088,-1.052,0.046,6.775,-13.306,31.311,23,57,310720.111,-1.010,0.065,5.920,-13.794,32.104,23,57,310870.078,-0.996,0.101,4.578,-9.583,32.532,23,57,311020.112,-1.010,0.079,5.737,-5.676,35.095,23,57,311170.089,-1.019,0.056,6.714,-2.930,36.133,23,57,311320.041,-1.066,0.047,7.507,-1.526,39.612,23,57,311470.017,-1.034,-0.004,7.507,-2.686,45.410,23,57,311620.002,-1.038,-0.023,6.348,0.916,52.795,23,57,31177-0.058,-1.128,0.004,5.676,3.845,58.044,23,57,31192-0.016,-1.133,0.172,4.211,6.775,71.228,23,57,31207-0.002,-1.137,0.352,5.188,10.681,84.473,23,57,312220.114,-1.191,0.300,5.310,16.541,90.393,23,57,312370.102,-1.276,0.194,4.028,36.621,100.952,23,57,312520.045,-1.387,0.130,5.920,39.978,115.417,23,57,312670.043,-1.437,0.144,5.859,31.067,129.333,23,57,31282-0.056,-1.724,0.125,5.981,26.855,137.146,23,57,31298-0.331,-1.953,0.259,2.563,22.705,154.663,23,57,31312-0.413,-2.017,0.405,8.179,0.793,177.795,23,57,31327-1.153,-2.521,0.654,7.324,-17.700,193.848,23,57,31342-0.882,-2.302,0.764,-2.930,-46.204,222.412,23,57,31357-0.444,-2.027,0.399,18.066,-38.818,220.703,23,57,31372-0.141,-1.818,0.114,15.564,-38.391,216.553,23,57,313870.743,-1.658,-0.289,1.526,-46.082,208.191,23,57,314020.509,-1.351,-0.006,-20.874,-42.114,190.857,23,57,314170.231,-1.123,0.061,-32.776,17.700,142.151,23,57,314320.441,-0.567,-0.084,-26.611,19.836,120.361,23,57,31447-0.301,-0.567,0.022,-24.963,1.404,74.463,23,57,31462-0.418,-0.565,-0.368,-3.357,44.678,-18.250,23,57,31477-0.133,-0.397,-0.368,22.217,32.471,-49.377,23,57,314920.121,-0.122,-0.255,22.156,-17.212,-70.374,23,57,315080.108,-0.164,-0.119,-13.489,-23.560,-96.191,23,57,315220.049,-0.210,-0.070,-24.170,-20.203,-132.751,23,57,31537-0.027,-0.302,-0.014,-21.362,-22.827,-150.818,23,57,31552-0.010,-0.367,-0.021,-19.409,-24.414,-185.120,23,57,315670.021,-0.414,-0.034,-20.996,-25.208,-215.576,23,57,315820.065,-0.522,-0.064,-20.447,-24.902,-229.492,23,57,315970.013,-0.727,-0.067,-19.958,-22.400,-255.615,23,57,316120.047,-0.825,-0.057,-22.217,-28.198,-276.367,23,57,316270.092,-0.856,0.027,-24.414,-41.199,-291.748,23,57,316420.000,-1.234,0.026,-21.423,-57.678,-302.368,23,57,316570.244,-1.572,0.162,-6.348,-65.002,-312.866,23,57,316720.657,-1.836,0.199,-1.709,-61.279,-320.435,23,57,316870.923,-2.013,0.209,8.240,-55.115,-331.238,23,57,317020.799,-2.067,0.104,22.278,-9.827,-353.088,23,57,317180.764,-2.161,-0.098,17.822,35.522,-347.290,23,57,317320.732,-2.071,-0.144,12.756,30.518,-328.613,23,57,317471.160,-1.691,-0.082,6.104,-42.419,-266.235,23,57,317621.550,-1.515,-0.061,9.888,-82.947,-205.139,23,57,317771.710,-1.303,0.041,39.001,-88.379,-132.812,23,57,317921.816,-0.883,0.256,46.387,-83.496,-90.881,23,57,318071.834,-0.818,0.427,29.114,-54.260,1.404,23,57,318221.844,-0.856,0.400,7.690,9.460,72.449,23,57,318370.189,-1.782,0.208,-2.380,47.058,100.281,23,57,31852-2.101,-1.390,0.583,28.381,142.822,99.121,23,57,318670.657,-1.029,2.038,65.918,-3.723,55.420,23,57,31882-0.365,-2.268,1.327,-24.353,99.182,135.010,23,57,318970.398,-1.566,0.841,-43.396,107.178,160.339,23,57,319120.726,-1.312,-0.142,43.579,45.105,145.813,23,57,319270.969,-1.253,-0.983,47.241,230.835,110.291,23,57,319420.254,-0.968,-0.370,81.726,252.075,95.459,23,57,31957-0.059,-0.945,-0.131,44.312,155.518,101.257,23,57,319730.166,-1.010,-0.045,-4.761,43.396,118.103,23,57,319870.095,-0.969,0.337,-3.967,-34.912,125.305,23,57,320020.372,-1.075,0.655,-13.977,-132.202,133.118,23,57,320170.698,-1.074,0.141,3.113,-24.292,94.421,23,57,320320.453,-1.074,-0.057,19.958,72.815,52.551,23,57,320470.112,-1.007,0.097,17.456,69.214,46.204,23,57,32062-0.074,-1.017,0.037,18.494,60.303,39.856,23,57,32077-0.073,-1.022,-0.020,15.686,39.551,37.659,23,57,320920.134,-0.997,-0.035,15.015,14.771,39.612,23,57,321070.164,-1.011,0.004,7.690,-5.005,38.269,23,57,321220.187,-1.016,0.094,3.540,-2.686,33.997,23,57,321370.182,-1.014,0.139,3.296,0.732,29.602,23,57,321520.154,-1.008,0.148,6.042,5.554,27.588,23,57,321670.098,-1.001,0.043,7.629,9.033,24.658,23,57,321820.059,-0.992,0.024,7.324,2.869,25.269,23,57,321970.104,-1.018,0.029,6.165,-2.625,27.161,23,57,322120.182,-1.008,0.083,6.287,-12.817,29.541,23,57,322280.163,-1.047,0.092,6.226,-13.428,28.687,23,57,322420.107,-1.053,0.080,5.981,-13.000,28.625,23,57,322570.073,-1.010,0.028,5.371,-16.235,30.151,23,57,322720.131,-0.999,0.071,5.554,-17.822,32.898,23,57,322870.137,-1.010,0.098,6.531,-11.230,36.438,23,57,323020.084,-1.023,0.093,7.263,-6.958,38.147,23,57,32317-0.005,-1.106,-0.008,6.958,-2.747,43.335,23,57,32332-0.060,-1.155,-0.036,4.883,-0.977,52.795,23,57,32347-0.082,-1.126,0.146,4.150,-1.404,59.692,23,51,323620.024,-1.100,0.252,3.601,5.188,74.829,23,57,323770.033,-1.209,0.128,2.808,25.208,88.318,23,57,323920.006,-1.271,0.101,2.380,38.574,104.065,23,57,324070.046,-1.364,0.112,3.723,38.879,112.122,23,57,32422-0.040,-1.618,0.101,2.563,36.560,127.686,23,57,32437-0.155,-1.757,0.094,-0.244,36.987,144.165,23,57,32452-0.299,-1.913,0.274,0.854,32.104,154.419,23,57,32467-0.532,-2.245,0.562,8.728,14.221,178.894,23,57,32483-1.291,-2.746,0.672,4.089,-14.465,208.191,23,57,32497-1.139,-2.501,0.626,-6.042,-32.166,221.313,23,57,32512-0.428,-2.002,0.280,18.738,-53.406,221.008,23,57,325270.389,-1.683,-0.138,11.597,-72.937,214.905,23,57,325420.774,-1.591,-0.149,-2.075,-72.754,205.872,23,57,325570.405,-1.346,0.092,-20.020,-59.448,198.120,23,57,325720.256,-1.003,-0.283,-26.184,5.066,140.503,23,57,325870.292,-0.574,0.024,-1.404,-12.085,100.891,23,57,32602-0.446,-0.564,0.120,-15.808,-19.470,76.538,23,57,32617-0.339,-0.571,-0.234,12.451,23.743,-19.958,23,57,32632-0.020,-0.259,-0.174,52.979,-6.714,-68.970,23,57,326470.064,-0.182,-0.071,46.448,-29.114,-78.979,23,57,326620.104,-0.222,0.053,10.193,-35.950,-106.506,23,57,326770.003,-0.300,0.148,0.793,-32.593,-142.883,23,57,32692-0.016,-0.339,0.175,5.432,-37.842,-180.420,23,57,32707-0.001,-0.426,0.189,10.254,-38.635,-197.754,23,57,327220.080,-0.496,0.173,7.507,-37.170,-229.431,23,57,327380.083,-0.550,0.169,5.493,-33.447,-258.545,23,57,327520.010,-0.802,0.182,4.211,-31.921,-271.912,23,57,327670.057,-0.898,0.191,-1.404,-35.706,-290.527,23,57,327820.106,-1.098,0.266,-7.446,-50.903,-311.218,23,57,327970.051,-1.352,0.227,-10.315,-52.429,-323.486,23,57,328120.089,-1.681,0.360,-3.418,-67.932,-332.275,23,57,328270.852,-2.208,0.433,-8.606,-77.576,-335.022,23,57,328420.999,-2.263,0.358,5.066,-77.026,-350.830,23,57,328570.966,-2.223,0.269,10.498,-60.120,-356.689,23,57,328720.942,-2.105,0.057,1.526,-7.141,-335.632,23,57,328871.157,-1.838,-0.179,1.282,-29.724,-277.344,23,57,329021.578,-1.549,-0.204,0.549,-56.763,-241.821,23,57,329171.909,-1.302,-0.030,15.198,-72.021,-169.495,23,57,329322.010,-0.928,0.094,38.452,-86.731,-77.881,23,57,329471.976,-0.892,0.229,11.719,-59.265,18.799,23,52,329621.975,-0.947,0.217,6.104,-24.780,58.960,23,57,329770.157,-1.329,0.538,-2.075,51.270,115.906,23,57,32992-3.250,-1.919,0.033,-5.310,144.531,128.113,23,57,33007-0.186,-1.034,0.536,48.523,170.349,53.101,23,57,330220.090,-1.459,2.027,54.871,-83.923,62.378,23,57,330370.005,-2.128,0.777,-120.850,138.916,141.418,23,57,330520.301,-1.338,1.063,16.785,76.233,140.198,23,57,330670.655,-1.331,-0.212,29.053,67.932,119.690,23,57,330820.708,-1.237,-0.555,67.932,222.717,92.468,23,57,33097-0.051,-0.992,-0.335,74.768,167.236,99.365,23,57,331120.044,-0.828,-0.373,40.344,127.747,101.257,23,57,331270.185,-1.019,0.030,3.784,25.879,109.924,23,57,331420.035,-1.097,0.543,-8.545,-99.182,126.709,23,57,331570.381,-1.075,0.542,-13.733,-119.141,124.695,23,56,331720.533,-1.058,0.165,-1.709,-18.616,87.524,23,56,331870.271,-1.040,0.061,14.404,65.674,53.345,23,57,332030.185,-1.052,0.094,13.672,63.904,41.077,23,57,33217-0.011,-1.000,-0.002,15.259,61.829,36.682,23,57,332320.011,-1.003,-0.006,11.292,43.030,33.142,23,57,332470.083,-1.001,0.008,9.460,4.944,34.485,23,57,332620.113,-1.020,0.059,6.775,-2.319,33.508,23,57,332770.119,-1.014,0.151,4.395,-2.197,30.640,23,57,332920.142,-0.997,0.209,10.010,1.282,24.719,23,57,333070.133,-0.997,0.153,13.306,12.085,21.179,23,57,333220.042,-0.984,0.002,11.719,10.437,23.315,23,57,33337-0.030,-1.001,-0.051,8.423,-1.709,29.236,23,57,33352-0.020,-1.010,-0.031,7.385,-7.507,32.104,23,57,333670.095,-1.035,0.069,7.324,-7.874,34.302,23,57,333820.127,-1.010,0.145,7.324,0.977,34.973,23,57,333970.093,-1.013,0.087,7.996,4.883,36.011,23,57,334120.046,-0.995,0.041,9.033,7.141,39.429,23,57,334270.084,-1.001,0.027,9.888,8.850,44.678,23,57,334420.080,-1.054,0.069,10.193,10.376,46.753,23,57,334570.085,-1.068,0.060,10.742,10.498,52.002,23,57,334720.051,-1.067,0.028,10.315,11.597,58.777,23,57,33487-0.014,-1.143,0.002,9.705,12.756,63.293,23,57,33503-0.027,-1.135,0.070,10.803,11.719,74.646,23,57,335170.037,-1.126,0.238,10.864,16.724,86.548,23,57,335320.090,-1.179,0.163,11.597,30.823,96.741,23,57,335470.098,-1.198,0.126,11.292,34.424,103.394,23,57,335620.040,-1.325,0.028,11.963,32.104,117.981,23,57,335770.020,-1.411,0.067,14.954,22.949,133.484,23,57,33592-0.000,-1.485,0.115,13.916,20.630,142.029,23,57,33607-0.132,-1.836,0.177,14.893,13.367,161.255,23,57,33622-0.402,-2.046,0.423,21.179,-20.630,188.293,23,57,33637-0.609,-2.187,0.575,17.029,-44.373,205.444,23,57,33652-1.209,-2.590,0.909,16.785,-69.763,226.746,23,56,33667-0.803,-2.202,0.666,26.001,-71.594,217.651,23,56,33682-0.143,-1.769,0.311,19.775,-82.397,212.708,23,56,336970.475,-1.709,-0.044,-2.380,-77.820,208.008,23,56,337130.756,-1.550,0.001,-38.696,-34.119,181.274,23,57,337270.271,-1.245,0.070,-38.635,-7.019,153.381,23,57,337420.379,-1.083,-0.400,-11.780,13.550,100.525,23,57,337570.135,-0.560,0.112,-13.428,38.025,31.433,23,57,33772-0.456,-0.595,-0.302,22.095,43.213,-48.889,23,57,33787-0.343,-0.491,-0.341,41.199,-8.362,-59.448,23,57,33802-0.000,-0.197,-0.322,5.127,-40.710,-76.294,23,57,338170.155,-0.140,-0.172,-15.625,-40.161,-110.718,23,57,338320.036,-0.205,-0.079,-13.184,-40.833,-130.676,23,57,338470.019,-0.238,-0.026,-11.780,-40.405,-166.199,23,57,338620.022,-0.306,0.008,-16.479,-29.236,-200.134,23,57,338770.038,-0.375,-0.027,-16.174,-24.841,-216.797,23,57,338920.019,-0.416,-0.051,-10.803,-26.245,-246.582,23,57,339070.001,-0.542,-0.043,-10.925,-34.729,-269.714,23,57,33923-0.006,-0.792,-0.042,-13.611,-58.655,-282.715,23,57,339370.062,-0.792,-0.020,-12.878,-72.083,-292.236,23,57,339520.101,-0.926,0.121,-7.324,-75.684,-312.683,23,57,339670.010,-1.392,0.134,8.728,-87.463,-321.045,23,57,339820.160,-1.552,0.225,10.437,-83.618,-326.599,23,57,339970.814,-1.996,0.386,20.447,-52.917,-342.102,23,57,340120.992,-2.202,0.251,33.936,-4.761,-355.103,23,57,340270.996,-2.208,0.081,32.166,16.968,-344.055,23,57,340421.002,-2.147,0.039,16.602,-7.019,-286.865,23,57,340571.206,-1.717,-0.120,1.343,-81.604,-214.844,23,57,340721.597,-1.514,-0.075,4.822,-93.689,-144.653,23,57,340871.779,-1.428,-0.051,30.518,-90.515,-106.384,23,57,341021.853,-1.071,0.107,30.273,-84.106,-16.541,23,57,341171.797,-0.906,0.420,16.113,-43.518,65.979,23,57,341331.852,-0.917,0.361,8.118,-14.099,97.107,23,57,341471.798,-0.989,0.404,-10.193,41.321,152.039,23,57,34162-2.588,-1.864,0.114,38.696,156.982,69.824,23,57,34177-0.949,-1.125,0.511,86.914,82.581,25.330,23,57,341920.978,-0.003,1.766,-76.294,19.470,74.280,23,57,34207-0.437,-2.544,0.906,-18.555,111.633,132.507,23,57,34222-0.003,-1.420,1.010,63.293,-1.038,125.122,23,57,342370.643,-1.339,0.464,27.588,176.880,96.375,23,57,342521.292,-1.332,-0.622,77.820,232.910,93.567,23,57,34267-0.115,-1.036,-0.101,58.228,179.199,93.079,23,57,34282-0.192,-0.887,-0.092,1.770,100.403,98.267,23,57,342970.180,-1.012,-0.337,-3.052,-53.162,117.981,23,57,34312-0.032,-1.013,0.422,-2.502,-135.742,122.070,23,57,343270.151,-1.003,0.550,5.920,-66.711,99.792,23,57,343430.754,-1.099,0.077,13.000,55.481,54.749,23,57,343570.323,-1.075,-0.058,14.648,49.194,41.748,23,51,343720.072,-0.994,0.081,13.977,51.941,35.706,23,57,34387-0.049,-1.055,0.030,11.292,38.757,33.569,23,57,34402-0.021,-1.013,-0.037,9.094,-4.211,37.720,23,57,344170.122,-1.005,-0.020,6.226,-9.399,36.255,23,57,344320.076,-1.030,-0.036,1.648,-9.521,35.828,23,57,344470.150,-1.030,0.089,4.211,-2.747,32.471,23,57,344620.191,-0.970,0.127,7.568,14.709,26.489,23,57,344770.053,-0.969,0.098,8.850,15.137,25.940,23,57,344920.052,-0.984,0.075,9.949,4.761,29.175,23,57,345070.096,-1.016,-0.023,8.850,-6.653,32.227,23,57,345220.107,-1.029,0.017,7.751,-10.803,33.508,23,57,345370.124,-1.027,0.025,5.859,-9.888,34.790,23,57,345530.102,-1.007,0.051,4.272,-4.272,35.950,23,57,345670.136,-0.956,0.039,5.920,2.930,37.292,23,57,345820.129,-0.957,0.051,7.385,4.150,38.574,23,57,345970.172,-1.067,0.089,8.972,2.808,41.138,23,57,346120.141,-1.104,0.056,7.935,-1.038,43.030,23,57,346270.084,-1.026,0.000,7.629,-2.625,44.983,23,57,346420.036,-1.016,-0.009,7.263,2.747,52.856,23,57,34657-0.064,-1.172,-0.008,5.127,8.728,66.772,23,57,34672-0.084,-1.209,0.127,4.944,7.690,75.317,23,57,34687-0.027,-1.175,0.192,6.897,14.038,91.064,23,57,347020.055,-1.182,0.179,7.202,31.677,105.530,23,57,347170.034,-1.277,0.084,7.690,36.682,113.647,23,57,347320.008,-1.347,0.069,9.216,35.400,130.127,23,57,34747-0.017,-1.554,0.056,7.080,31.006,147.461,23,57,34763-0.273,-1.878,0.066,11.597,15.320,168.823,23,57,34777-0.342,-1.950,0.398,15.747,3.784,181.641,23,57,34792-0.516,-2.237,0.527,12.451,-27.405,211.548,23,57,34807-1.291,-2.743,0.708,6.287,-59.082,230.652,23,57,34822-0.682,-2.202,0.499,24.719,-59.631,224.243,23,57,34837-0.295,-2.028,0.322,15.747,-72.266,215.332,23,57,348520.392,-1.720,-0.069,-2.869,-77.637,207.581,23,57,348670.579,-1.503,-0.020,-20.691,-68.420,172.485,23,57,348820.521,-1.336,0.154,-35.034,-17.151,147.583,23,57,348970.462,-0.976,-0.281,-14.282,-14.282,103.455,23,57,349120.069,-0.538,0.315,-18.860,13.184,28.992,23,57,34927-0.392,-0.633,-0.170,21.484,25.574,-20.630,23,57,34942-0.260,-0.514,-0.202,50.415,-14.648,-59.753,23,57,349570.047,-0.208,-0.146,20.813,-40.161,-81.238,23,57,349720.117,-0.177,-0.000,5.493,-41.748,-97.046,23,57,349870.065,-0.206,0.059,3.357,-48.279,-133.728,23,57,35002-0.009,-0.263,0.187,9.216,-53.528,-169.800,23,57,35018-0.005,-0.331,0.238,8.362,-47.974,-203.308,23,57,350320.005,-0.359,0.227,7.935,-44.189,-219.116,23,57,350470.065,-0.423,0.209,6.226,-38.696,-248.657,23,57,350620.036,-0.550,0.204,3.906,-36.072,-274.536,23,57,350770.012,-0.766,0.188,0.916,-40.283,-282.776,23,57,350920.064,-0.766,0.226,-3.418,-55.481,-303.040,23,57,351070.100,-0.865,0.312,-7.996,-52.612,-329.407,23,57,351220.056,-1.291,0.338,-9.949,-55.542,-335.571,23,57,351370.047,-1.429,0.357,-9.888,-72.754,-339.661,23,57,351520.425,-1.844,0.526,-19.897,-64.636,-345.276,23,57,351671.125,-2.269,0.414,-13.367,-32.227,-365.906,23,57,351821.011,-2.330,0.169,-13.733,1.648,-365.356,23,57,351970.817,-2.327,-0.002,-13.306,8.423,-309.753,23,57,352121.182,-1.909,-0.275,-6.226,-90.210,-222.351,23,57,352281.504,-1.678,-0.194,-0.977,-115.540,-177.551,23,57,352421.765,-1.475,-0.123,32.471,-134.949,-85.815,23,57,352572.153,-1.002,-0.038,17.578,-119.812,5.798,23,57,352722.046,-0.883,0.273,2.441,-50.659,86.365,23,57,352872.040,-0.977,0.327,-1.343,-5.981,114.197,23,57,353020.970,-1.129,0.660,-10.803,99.854,141.541,23,57,35317-4.276,-1.923,-0.579,83.618,97.839,26.550,23,57,353321.307,-0.024,1.357,77.576,-56.946,50.720,23,57,353470.570,-0.764,2.015,-138.000,141.174,123.108,23,57,35362-0.210,-2.511,0.722,60.425,28.259,134.949,23,57,353770.361,-1.150,0.850,37.964,149.109,112.549,23,57,353920.675,-1.295,0.104,39.612,209.045,102.173,23,57,354070.935,-1.316,-0.629,84.595,193.848,96.497,23,57,35422-0.005,-0.926,-0.279,27.771,126.526,93.079,23,57,354380.154,-0.935,-0.237,10.437,81.726,99.121,23,57,354520.150,-1.027,-0.046,0.793,-54.871,115.540,23,57,354670.050,-1.060,0.403,-14.282,-110.535,113.770,23,57,354820.458,-1.085,0.391,-10.925,-79.285,101.807,23,57,354970.588,-1.050,0.413,14.221,17.090,65.674,23,57,355120.334,-1.077,0.088,18.005,61.890,42.603,23,57,355270.185,-1.017,0.024,14.587,62.744,35.156,23,57,355420.132,-0.994,-0.075,12.024,52.307,32.776,23,57,35557-0.063,-0.987,-0.038,7.812,19.226,35.339,23,57,355720.060,-1.019,0.027,2.625,4.089,36.560,23,57,355870.142,-1.008,0.060,0.244,3.357,35.889,23,57,356020.145,-1.010,0.112,0.183,5.066,32.349,23,57,356170.179,-1.017,0.162,4.639,10.254,27.405,23,57,356320.171,-0.997,0.160,7.446,13.306,23.438,23,57,356470.125,-0.989,0.113,8.728,13.123,23.376,23,57,356620.026,-1.001,0.047,6.836,-0.610,27.771,23,57,356770.054,-1.011,0.051,5.737,-13.000,31.738,23,57,356920.182,-1.041,0.079,5.981,-13.367,31.799,23,57,357070.164,-1.038,0.084,5.066,-12.634,30.945,23,57,357220.089,-1.014,0.041,5.737,-18.738,34.058,23,57,357380.107,-1.000,0.032,5.676,-19.836,35.645,23,57,357520.071,-1.003,0.068,5.920,-12.817,38.879,23,57,357670.041,-1.032,0.037,6.592,-3.662,43.335,23,57,357820.030,-1.100,-0.014,5.920,0.671,51.086,23,57,35797-0.105,-1.145,-0.024,4.761,4.272,55.420,23,57,35812-0.031,-1.105,0.228,2.991,5.615,69.824,23,57,358270.045,-1.164,0.231,1.404,13.123,85.632,23,57,358420.045,-1.187,0.225,1.343,25.024,91.431,23,57,358570.061,-1.294,0.137,3.296,41.260,105.103,23,57,358720.001,-1.438,0.069,4.883,43.640,120.728,23,57,358870.003,-1.482,0.104,5.310,34.302,135.498,23,57,35902-0.043,-1.781,0.123,6.653,30.334,143.555,23,57,35917-0.379,-2.051,0.246,1.099,30.457,161.682,23,57,35932-0.679,-2.274,0.713,10.132,1.465,185.364,23,57,35948-1.109,-2.605,0.699,8.850,-22.400,201.660,23,57,35962-0.895,-2.314,0.590,-4.761,-51.819,230.530,23,57,35977-0.541,-1.990,0.294,15.198,-58.716,226.196,23,57,359920.077,-1.866,-0.104,9.949,-79.529,223.755,23,57,360071.071,-1.646,-0.146,-0.061,-82.642,214.661,23,57,360220.287,-1.384,0.193,-42.297,-30.151,202.087,23,57,360370.243,-1.216,-0.110,-46.021,10.437,169.678,23,57,36052-0.057,-0.614,0.148,-17.883,25.208,117.920,23,57,36067-0.498,-0.606,-0.160,-15.686,31.982,52.002,23,57,36082-0.333,-0.524,-0.234,27.893,33.386,-32.959,23,57,360970.002,-0.251,-0.267,29.358,13.062,-47.424,23,57,361120.097,-0.162,-0.129,6.348,-17.517,-71.777,23,57,361270.050,-0.241,-0.036,-7.874,-20.935,-109.009,23,57,36142-0.013,-0.236,0.010,-4.822,-23.438,-129.944,23,57,361580.028,-0.286,0.015,-0.732,-25.391,-168.152,23,57,361720.063,-0.344,0.005,-2.075,-20.752,-202.454,23,57,361870.053,-0.387,0.008,-2.258,-16.602,-235.352,23,57,362020.010,-0.506,0.020,-1.099,-16.235,-251.038,23,57,36217-0.010,-0.765,0.040,-0.916,-19.165,-278.931,23,57,362320.002,-0.871,0.025,-5.005,-32.043,-296.021,23,57,362470.098,-0.881,0.139,-7.019,-45.959,-302.490,23,57,36262-0.051,-1.333,0.125,-6.714,-58.105,-325.500,23,57,362770.153,-1.736,0.294,2.502,-78.796,-334.290,23,57,362920.592,-2.019,0.374,0.061,-90.454,-334.717,23,57,363071.075,-2.297,0.276,6.531,-97.107,-343.079,23,57,363221.082,-2.239,0.168,26.855,-64.880,-362.732,23,57,363371.070,-2.287,0.153,26.855,-12.024,-340.637,23,57,363521.227,-1.972,0.004,22.461,-17.700,-312.988,23,57,363671.638,-1.629,-0.051,11.353,-74.768,-242.249,23,51,363821.774,-1.310,0.039,21.423,-78.674,-171.936,23,57,363972.024,-1.039,0.162,35.767,-83.069,-127.625,23,57,364131.970,-0.878,0.403,32.837,-71.106,-34.485,23,57,364271.948,-0.887,0.341,15.198,-20.691,53.345,23,57,364421.327,-1.050,0.563,-8.728,38.147,117.432,23,57,36457-3.598,-1.852,-0.590,-10.864,84.961,133.606,23,57,364720.635,-0.464,1.114,67.139,138.184,46.082,23,57,364870.421,-0.411,2.561,-9.338,-74.036,84.656,23,57,36502-0.313,-2.544,0.911,-139.954,110.779,107.544,23,57,365170.252,-1.336,0.954,33.569,52.795,141.663,23,57,365320.685,-1.251,-0.563,17.456,149.719,116.638,23,57,365470.638,-1.176,-0.888,39.612,215.759,108.826,23,57,365620.091,-0.942,-0.455,76.172,230.103,86.853,23,57,365770.075,-1.005,-0.254,27.649,139.160,98.572,23,57,365920.190,-1.034,-0.041,-0.549,9.705,115.234,23,57,366070.019,-1.084,0.381,-7.996,-64.636,122.559,23,57,366220.491,-1.049,0.413,-21.301,-127.991,123.718,23,57,366370.556,-1.070,0.299,-5.371,-50.720,90.820,23,57,366520.374,-1.051,0.209,15.625,34.973,56.213,23,57,366670.243,-1.044,0.136,19.104,60.669,44.128,23,57,366820.079,-1.021,-0.125,22.461,80.017,30.457,23,57,36697-0.056,-0.996,-0.149,21.545,75.989,26.428,23,57,36712-0.019,-1.002,-0.009,12.390,25.024,31.250,23,57,367270.116,-1.017,0.056,5.554,-8.545,35.217,23,57,367420.126,-1.017,0.078,3.784,-14.038,35.339,23,57,367570.159,-1.022,0.149,1.343,-9.216,32.288,23,57,367720.171,-1.000,0.136,5.188,0.549,27.039,23,57,367870.130,-0.984,0.103,10.437,16.235,20.813,23,57,368020.010,-0.979,0.009,11.597,18.677,19.775,23,57,368170.025,-0.997,-0.022,9.705,7.812,23.499,23,57,368320.055,-1.010,0.009,7.080,-8.667,28.992,23,57,368470.137,-1.049,0.053,5.981,-14.099,31.128,23,57,368620.080,-1.023,0.120,5.310,-16.296,31.738,23,57,368770.081,-1.041,0.030,4.761,-16.174,33.875,23,52,368920.082,-1.025,0.007,3.906,-15.564,35.889,23,52,369070.031,-1.017,0.048,4.700,-11.780,37.659,23,52,369230.008,-1.018,0.034,5.798,-5.432,43.274,23,57,369370.002,-1.050,0.001,6.226,1.343,51.147,23,57,36952-0.112,-1.138,-0.062,5.676,6.104,55.725,23,57,36968-0.069,-1.087,0.085,5.005,6.409,69.275,23,57,369820.014,-1.137,0.166,5.127,10.681,85.144,23,57,369970.040,-1.184,0.216,5.676,19.043,91.919,23,57,370120.088,-1.299,0.178,5.798,34.180,105.652,23,57,370270.083,-1.396,0.117,7.202,36.682,120.178,23,57,370420.057,-1.465,0.101,8.240,29.236,132.690,23,57,370570.052,-1.642,0.187,9.216,23.682,139.343,23,57,37072-0.288,-1.948,0.236,6.042,18.616,154.846,23,57,37087-0.435,-2.024,0.532,10.010,-0.549,175.049,23,57,37102-0.973,-2.396,0.710,12.329,-20.752,190.063,23,57,37117-0.990,-2.439,0.718,-1.404,-59.509,224.487,23,56,37132-0.607,-2.110,0.444,20.203,-69.519,227.539,23,56,37147-0.290,-1.899,0.206,17.273,-74.829,220.947,23,57,371620.809,-1.656,-0.201,5.615,-85.815,215.576,23,57,371770.472,-1.436,0.033,-20.996,-72.876,208.374,23,57,371920.385,-1.241,0.134,-40.833,-7.080,154.236,23,57,372070.497,-0.717,-0.051,-34.973,10.986,132.629,23,57,37222-0.339,-0.608,0.019,-23.621,4.211,89.294,23,57,37237-0.436,-0.625,-0.225,-22.278,35.217,-6.897,23,57,37252-0.121,-0.376,-0.282,35.828,22.766,-37.964,23,57,372670.114,-0.147,-0.181,30.334,-21.912,-59.937,23,57,372820.129,-0.154,-0.131,12.329,-26.550,-88.440,23,57,372970.037,-0.207,-0.052,-7.935,-24.536,-106.812,23,57,373120.002,-0.244,0.015,-2.197,-29.297,-144.104,23,57,373270.004,-0.276,0.029,-1.587,-26.917,-178.528,23,57,373430.022,-0.340,0.021,-3.174,-22.949,-195.618,23,57,373570.064,-0.413,-0.020,-3.845,-13.306,-255.859,23,57,373720.075,-0.549,-0.009,-5.371,-10.925,-269.226,23,57,373870.026,-0.689,-0.003,-9.644,-14.343,-291.138,23,57,37402-0.010,-0.824,-0.007,-14.771,-38.391,-309.387,23,57,374170.009,-1.027,0.071,-14.709,-44.312,-320.923,23,57,37432-0.056,-1.273,0.015,-4.639,-69.214,-329.346,23,57,374470.190,-1.688,0.148,-6.653,-86.426,-330.688,23,57,374621.040,-2.317,0.173,18.799,-83.557,-352.356,23,57,374771.112,-2.286,0.115,27.344,-59.204,-361.633,23,57,374921.012,-2.252,0.011,30.945,-10.620,-341.064,23,56,375070.967,-2.292,-0.109,30.762,-76.416,-274.902,23,56,375221.185,-1.809,0.005,25.940,-116.638,-236.694,23,56,375371.614,-1.677,-0.013,32.654,-130.188,-164.246,23,57,375532.098,-1.298,0.155,49.072,-107.483,-83.496,23,57,375672.062,-0.958,0.409,42.297,-50.049,9.033,23,57,375822.001,-0.873,0.562,26.123,-22.400,52.490,23,57,375972.000,-0.808,0.576,0.183,38.269,121.765,23,57,37612-1.321,-1.736,0.380,19.165,166.443,86.792,23,57,37627-3.406,-1.969,-0.590,70.923,173.523,29.419,23,57,376420.649,-0.279,1.346,-23.376,-24.658,76.843,23,57,37657-0.485,-2.324,1.452,-42.664,153.564,120.850,23,57,37672-0.348,-2.397,1.008,42.114,43.762,127.014,23,57,376870.314,-1.476,0.872,24.292,155.640,114.075,23,57,377020.699,-1.276,-0.646,61.829,238.525,96.619,23,57,377170.294,-0.973,-0.749,60.059,220.337,105.469,23,57,377320.059,-0.945,-0.432,17.578,112.549,103.943,23,57,377470.195,-1.070,-0.246,-0.244,-14.893,119.690,23,57,377630.078,-1.068,0.260,-19.897,-127.441,130.737,23,57,377770.095,-1.066,0.462,-23.926,-124.817,125.977,23,57,377920.558,-1.059,0.541,3.723,-3.601,81.665,23,57,378080.554,-1.070,0.161,20.813,79.468,45.166,23,57,378220.143,-1.033,-0.006,20.447,77.454,38.086,23,57,378370.063,-1.039,-0.022,14.343,49.744,36.743,23,57,37852-0.114,-0.990,-0.056,10.803,16.724,40.527,23,57,378670.093,-1.000,-0.065,7.507,1.587,40.894,23,57,378820.091,-1.018,-0.038,0.977,-8.240,40.588,23,57,378970.114,-1.029,0.077,-1.892,-2.380,38.696,23,57,379120.148,-1.022,0.128,2.747,6.714,33.508,23,57,379270.150,-1.004,0.166,5.432,10.864,31.250,23,57,379420.127,-0.992,0.087,7.690,15.869,28.992,23,57,379570.041,-0.972,-0.014,5.859,5.737,31.738,23,57,379720.028,-0.978,-0.026,4.578,-1.770,34.058,23,57,379870.100,-1.008,0.037,3.906,-9.094,37.109,23,57,380020.148,-1.073,0.057,2.869,-8.667,37.964,23,57,380180.083,-1.024,0.063,2.502,-8.606,39.612,23,57,380320.063,-1.010,0.053,2.258,-12.146,41.504,23,57,380470.120,-0.999,0.031,3.418,-8.484,44.434,23,57,380620.152,-1.012,0.077,4.395,-0.366,46.814,23,51,380770.133,-1.025,0.096,4.883,2.014,48.401,23,57,380920.075,-1.047,0.037,3.662,6.226,54.688,23,57,38107-0.059,-1.132,-0.052,2.686,7.324,67.383,23,57,38122-0.090,-1.153,-0.009,2.075,7.141,74.951,23,57,381370.008,-1.143,0.224,2.930,16.296,89.294,23,57,381520.104,-1.167,0.291,3.906,35.522,102.478,23,57,381670.083,-1.227,0.188,5.188,39.978,109.680,23,57,381820.025,-1.351,0.072,6.958,38.757,125.061,23,57,381970.044,-1.481,0.021,8.789,29.297,139.343,23,57,382120.022,-1.649,0.141,8.728,25.635,146.606,23,57,38227-0.130,-1.831,0.114,6.775,17.639,163.452,23,57,38242-0.436,-2.064,0.283,13.977,-12.756,188.782,23,57,38257-0.920,-2.411,0.715,1.587,-51.453,222.412,23,57,38272-1.278,-2.715,0.641,3.113,-65.796,230.713,23,57,38287-0.955,-2.370,0.478,23.621,-81.482,223.389,23,57,38302-0.278,-1.887,0.179,7.629,-107.849,219.055,23,57,383170.276,-1.747,-0.262,1.282,-106.445,215.210,23,57,383320.895,-1.503,-0.062,-48.462,-37.292,192.688,23,57,383470.338,-1.186,0.177,-35.461,19.775,129.517,23,57,383620.421,-0.664,0.066,-13.489,14.160,83.191,23,57,38377-0.053,-0.575,0.205,-15.198,39.795,31.311,23,50,38393-0.445,-0.635,-0.260,46.387,35.095,-52.856,23,57,38407-0.088,-0.329,-0.248,33.386,-9.460,-74.402,23,57,384220.033,-0.203,-0.188,14.771,-12.878,-89.233,23,57,384370.088,-0.210,-0.083,2.502,-6.409,-127.686,23,57,38452-0.009,-0.281,-0.020,14.343,-16.418,-166.748,23,57,38467-0.044,-0.332,0.077,16.052,-20.752,-183.838,23,57,38482-0.035,-0.369,0.092,12.634,-24.841,-215.027,23,57,384970.018,-0.431,0.095,12.085,-30.212,-242.126,23,57,385120.021,-0.504,0.102,12.634,-38.269,-269.226,23,57,385270.004,-0.566,0.125,11.414,-43.823,-281.128,23,57,38542-0.035,-0.842,0.151,7.935,-63.232,-294.861,23,57,385570.109,-0.862,0.209,10.010,-79.346,-317.444,23,57,385720.130,-0.906,0.329,10.193,-75.806,-330.505,23,57,385870.063,-1.354,0.345,13.428,-86.121,-337.708,23,57,386030.188,-1.656,0.525,7.629,-90.576,-345.215,23,57,386170.937,-2.118,0.609,7.019,-64.392,-359.497,23,57,386321.218,-2.276,0.496,14.465,-38.696,-368.530,23,57,386471.244,-2.334,0.336,2.991,18.616,-342.590,23,57,386621.075,-2.104,0.067,-3.479,16.846,-273.315,23,57,386771.377,-1.833,-0.091,-7.385,-38.269,-234.314,23,57,386921.670,-1.645,-0.262,22.339,-72.815,-142.334,23,57,387072.096,-1.070,0.054,33.447,-88.257,-41.748,23,57,387222.130,-0.886,0.142,18.677,-73.792,7.507,23,57,387372.087,-0.830,0.340,1.160,-6.348,87.158,23,57,387521.227,-1.042,0.544,-12.756,101.135,125.488,23,57,38767-4.040,-1.918,-0.906,29.053,160.583,40.894,23,57,38782-1.650,-1.552,0.087,99.976,-91.797,65.430,23,57,387970.346,-1.005,2.445,-147.522,76.538,135.925,23,57,388120.008,-2.553,0.722,46.631,-9.399,165.771,23,57,388270.425,-1.600,1.170,21.240,52.307,148.376,23,57,388420.888,-1.308,-0.428,61.951,237.244,113.892,23,57,388570.854,-1.082,-0.536,72.937,200.684,101.318,23,57,388720.343,-0.877,-0.219,45.959,171.692,94.910,23,57,388870.013,-0.911,-0.317,8.667,61.829,104.431,23,57,389020.167,-1.041,-0.079,-6.348,-112.854,124.573,23,57,38917-0.032,-1.099,0.421,-9.705,-120.850,113.586,23,57,389320.294,-1.065,0.534,1.831,-53.528,92.224,23,57,389470.586,-1.042,0.241,21.240,47.974,51.086,23,57,389620.243,-1.079,-0.075,17.151,55.664,41.748,23,57,389770.134,-1.055,0.012,18.799,51.208,38.269,23,57,38992-0.090,-0.981,-0.039,15.259,39.612,34.851,23,57,39007-0.031,-1.017,-0.080,12.756,3.784,37.537,23,57,390230.085,-1.002,-0.043,8.606,-3.540,36.438,23,57,